"Time (s)","Linear Acceleration x (m/s^2)","Linear Acceleration y (m/s^2)","Linear Acceleration z (m/s^2)","Absolute acceleration (m/s^2)"
1.797802300E-2,1.347690821E-1,-2.000331879E-3,5.058021545E-1,5.234525063E-1
2.043925400E-2,1.538190842E-1,-9.305047989E-2,6.427516937E-1,6.674192402E-1
2.290286900E-2,1.896662712E-1,-1.156604290E-1,7.539453506E-1,7.859925070E-1
2.536402300E-2,2.066018581E-1,-1.606423855E-1,8.619337082E-1,9.007885552E-1
2.782763900E-2,2.108465433E-1,-1.853210926E-1,9.472398758E-1,9.879592879E-1
3.028886900E-2,2.348464727E-1,-2.082710266E-1,1.067239761E0,1.112443434E0
3.275248500E-2,2.828863859E-1,-2.133235931E-1,1.138623238E0,1.192474125E0
3.521371600E-2,2.828863859E-1,-2.343235016E-1,1.170723915E0,1.226999061E0
3.767734500E-2,2.395243645E-1,-1.778457165E-1,1.120365143E0,1.159404620E0
4.013857600E-2,3.305027485E-1,-2.358133793E-1,1.082211494E0,1.155864064E0
4.260211400E-2,3.069807291E-1,-2.200722694E-1,1.038304329E0,1.104873229E0
4.506334500E-2,2.948949337E-1,-2.579133511E-1,1.021137238E0,1.093710920E0
4.752696000E-2,2.762068510E-1,-2.397592068E-1,9.687852859E-1,1.035528673E0
4.998819000E-2,3.140418530E-1,-2.516238689E-1,9.086999893E-1,9.938171499E-1
5.245180600E-2,3.227444887E-1,-2.421448231E-1,8.262891769E-1,9.195389738E-1
5.491295900E-2,3.485246897E-1,-2.419791222E-1,6.851787567E-1,8.059114613E-1
5.734674200E-2,3.009551764E-1,-1.908540726E-1,4.817228317E-1,5.992129686E-1
5.978052700E-2,3.200051785E-1,-2.148540020E-1,2.927227020E-1,4.839960090E-1
6.230145000E-2,3.041026592E-1,-1.701705456E-1,3.072261810E-2,3.498289885E-1
6.476268100E-2,3.499754667E-1,-8.424496651E-2,-2.373533249E-1,4.311805220E-1
6.722629600E-2,2.673509121E-1,8.377194405E-2,-5.784406662E-1,6.427191090E-1
6.968745000E-2,4.732406139E-2,2.325172424E-1,-7.122955322E-1,7.507787690E-1
7.215105500E-2,-1.642664671E-1,3.285126686E-1,-6.925182343E-1,7.838912874E-1
7.461228600E-2,-6.836990118E-1,4.829590321E-1,-6.681795120E-1,1.071054446E0
7.707590200E-2,-1.236756325E0,8.195688725E-1,-6.565084457E-1,1.622424939E0
7.953713200E-2,-7.210578918E-1,8.067605495E-1,-3.429651260E-1,1.135082440E0
8.200077200E-2,-4.867975712E-1,7.378969193E-1,-1.485443115E-2,8.841291721E-1
8.446192600E-2,-5.485459566E-1,7.524664402E-1,4.539775848E-2,9.322925327E-1
8.692554100E-2,-7.042882442E-1,7.727186680E-1,2.242565155E-2,1.045762392E0
8.938677200E-2,-6.868500710E-1,7.461597919E-1,1.761245728E-2,1.014311419E0
9.185038700E-2,-7.329388857E-1,6.703958511E-1,4.160690308E-2,9.941635387E-1
9.431161800E-2,-6.244421005E-1,6.129894257E-1,6.586933136E-2,8.775093969E-1
9.677523300E-2,-5.020632744E-1,5.245671272E-1,8.772850037E-3,7.261646957E-1
9.923638700E-2,-2.916605473E-1,4.160301685E-1,-5.797576904E-2,5.113786911E-1
1.017000030E-1,-1.570991278E-1,3.041980267E-1,-1.759958267E-1,3.849559798E-1
1.041612330E-1,1.482200623E-2,1.149263382E-1,-2.579269409E-1,2.827614930E-1
1.066248390E-1,1.490051746E-1,-2.743840218E-2,-3.466835022E-1,3.783448938E-1
1.090860690E-1,2.928104401E-1,-8.647727966E-2,-4.426784515E-1,5.377550420E-1
1.115496850E-1,2.654913664E-1,4.677057266E-2,-6.008691788E-1,6.585718807E-1
1.140109160E-1,2.934173346E-1,1.684186459E-1,-8.208112717E-1,8.878004935E-1
1.164744540E-1,3.782665730E-1,1.853828430E-1,-9.836645126E-1,1.070069284E0
1.189356990E-1,4.620888233E-1,1.180686951E-1,-1.004581451E0,1.112047746E0
1.213993140E-1,4.663529992E-1,-1.878380775E-2,-9.752297401E-1,1.081161874E0
1.238605450E-1,4.520738125E-1,-1.868824959E-1,-8.751678467E-1,1.002603889E0
1.263241600E-1,3.614361286E-1,-2.577929497E-1,-8.982810974E-1,1.001999107E0
1.287853140E-1,2.893701792E-1,-2.928037643E-1,-1.021266937E0,1.101115481E0
1.312489200E-1,1.974198818E-1,-1.750800610E-1,-1.165510654E0,1.195007416E0
1.337101500E-1,1.404385567E-1,-3.622794151E-2,-1.333425045E0,1.341289604E0
1.361737660E-1,8.186149597E-2,1.461389065E-1,-1.465162754E0,1.474706676E0
1.386349970E-1,6.481754780E-2,2.368557453E-1,-1.505065918E0,1.524967336E0
1.410986120E-1,2.783441544E-2,3.087811470E-1,-1.533341408E0,1.564370936E0
1.435597610E-1,-1.811778545E-2,3.034522533E-1,-1.555220127E0,1.584651750E0
1.460233760E-1,-9.565877914E-2,3.847985268E-1,-1.670633316E0,1.717042861E0
1.484846070E-1,-1.475471258E-1,4.154131413E-1,-1.715429783E0,1.771168420E0
1.509482220E-1,-2.251749039E-1,4.527306557E-1,-1.778783321E0,1.849253603E0
1.534094530E-1,-3.588536978E-1,4.642529488E-1,-1.783497810E0,1.877543932E0
1.558730640E-1,-4.594159126E-1,5.790996552E-1,-1.831239700E0,1.974805872E0
1.583342170E-1,-5.530688763E-1,6.543831825E-1,-1.880881310E0,2.066837447E0
1.607978330E-1,-6.280018091E-1,7.887942791E-1,-1.863668442E0,2.118924904E0
1.632590640E-1,-6.154710054E-1,8.719110489E-1,-1.786285400E0,2.080828914E0
1.657226790E-1,-6.290442944E-1,9.501907825E-1,-1.693148613E0,2.040909472E0
1.681839200E-1,-6.163730621E-1,9.569804668E-1,-1.577540398E0,1.945343433E0
1.706475350E-1,-5.409766436E-1,9.284863472E-1,-1.536450386E0,1.874945976E0
1.731086890E-1,-4.924125671E-1,8.365342617E-1,-1.496955395E0,1.784134289E0
1.755723040E-1,-4.561004639E-1,8.672196865E-1,-1.530351639E0,1.817160905E0
1.780335350E-1,-4.176559448E-1,8.920824528E-1,-1.558807373E0,1.843943605E0
1.804971320E-1,-3.803080320E-1,9.555950165E-1,-1.678564548E0,1.968597211E0
1.829583620E-1,-3.109490871E-1,9.706349373E-1,-1.805177689E0,2.073038351E0
1.854219780E-1,-2.677459717E-1,1.010877132E0,-1.923210144E0,2.189131732E0
1.878831320E-1,-2.514081001E-1,1.018954515E0,-2.044772148E0,2.298383666E0
1.903467470E-1,-2.507866621E-1,1.033088207E0,-2.203701973E0,2.446725890E0
1.928079820E-1,-2.646338940E-1,1.025274515E0,-2.416382313E0,2.638204391E0
1.952715970E-1,-2.579343319E-1,1.085172176E0,-2.575053692E0,2.806248437E0
1.977327510E-1,-2.767484188E-1,1.065577269E0,-2.698815823E0,2.914730081E0
2.001963660E-1,-2.669980526E-1,9.929008484E-1,-2.759099960E0,2.944447766E0
2.026575970E-1,-3.098182678E-1,7.982630730E-1,-2.727972031E0,2.859203157E0
2.051212370E-1,-4.768382311E-1,7.305002213E-1,-2.612142086E0,2.753959250E0
2.075824670E-1,-6.913175583E-1,7.349576950E-1,-2.403789997E0,2.606969338E0
2.100460830E-1,-7.060151100E-1,8.977658749E-1,-2.206788540E0,2.484825258E0
2.125072370E-1,-6.264139414E-1,1.054628611E0,-1.890197754E0,2.253327202E0
2.149708520E-1,-4.673858881E-1,1.321700096E0,-1.618181229E0,2.140993041E0
2.174320980E-1,-5.073951483E-1,1.469644547E0,-1.399953365E0,2.092169772E0
2.198957130E-1,-5.739718676E-1,1.609661818E0,-1.226336002E0,2.103415048E0
2.223569440E-1,-7.251522541E-1,1.689034462E0,-1.111614227E0,2.148108330E0
2.248205590E-1,-8.590558767E-1,1.751587391E0,-1.004469872E0,2.194309712E0
2.272817130E-1,-9.930185080E-1,1.728769779E0,-9.216184616E-1,2.196385962E0
2.297453330E-1,-1.032915115E0,1.784263372E0,-9.013175964E-1,2.250085071E0
2.322065630E-1,-1.071465731E0,1.802636385E0,-9.030046463E-1,2.283189466E0
2.346701790E-1,-1.126305699E0,1.882589817E0,-9.612264633E-1,2.395133663E0
2.371314090E-1,-1.069918513E0,1.840618372E0,-1.040503502E0,2.369651695E0
2.395950250E-1,-9.705688953E-1,1.752917528E0,-1.129536629E0,2.300125396E0
2.420561800E-1,-8.406525850E-1,1.534727335E0,-1.158410072E0,2.098570622E0
2.445197950E-1,-6.928101778E-1,1.299553633E0,-1.235838890E0,1.922530455E0
2.469810260E-1,-5.058034658E-1,9.477729797E-1,-1.280979156E0,1.671830843E0
2.494446410E-1,-3.267177343E-1,5.991787910E-1,-1.364378929E0,1.525545661E0
2.519058720E-1,-9.844005108E-2,1.437945366E-1,-1.452243328E0,1.462661272E0
2.543695010E-1,1.462665796E-1,-3.673574924E-1,-1.468858719E0,1.521148045E0
2.568019810E-1,5.127062798E-1,-8.887369633E-1,-1.444630623E0,1.771913868E0
2.592345020E-1,8.527562618E-1,-1.230736971E0,-1.356730461E0,2.020550489E0
2.617555010E-1,1.120348930E0,-1.316221833E0,-1.320954800E0,2.175440926E0
2.642191170E-1,1.367365241E0,-1.323022842E0,-1.335054398E0,2.324316542E0
2.666803530E-1,1.510714293E0,-1.457505822E0,-1.335329056E0,2.487907672E0
2.691438910E-1,1.639889956E0,-1.564220190E0,-1.337958336E0,2.631759179E0
2.716051220E-1,1.725222707E0,-1.678481698E0,-1.321338177E0,2.745838447E0
2.740687370E-1,1.824772477E0,-1.692789912E0,-1.339155197E0,2.826423344E0
2.765299680E-1,1.883945465E0,-1.769073009E0,-1.365601063E0,2.922967001E0
2.789935680E-1,1.907129169E0,-1.739818692E0,-1.402893066E0,2.938063938E0
2.814547220E-1,1.973368049E0,-1.875196218E0,-1.455135822E0,3.086739797E0
2.839183380E-1,2.096882105E0,-1.984243155E0,-1.525204659E0,3.265024458E0
2.863795680E-1,2.209956884E0,-2.124444962E0,-1.468600273E0,3.399112029E0
2.888431840E-1,2.370799541E0,-2.222882032E0,-1.414175034E0,3.544260998E0
2.913044150E-1,2.477557182E0,-2.260852575E0,-1.330691814E0,3.608390869E0
2.937680300E-1,2.534493923E0,-2.124968767E0,-1.196076393E0,3.517065602E0
2.962291840E-1,2.541707516E0,-2.035628796E0,-1.031765938E0,3.415933641E0
2.986927990E-1,2.551743984E0,-2.028052330E0,-9.525575638E-1,3.395844450E0
3.011540300E-1,2.602664948E0,-2.198509455E0,-9.553136826E-1,3.538351718E0
3.036176360E-1,2.695446730E0,-2.348976135E0,-9.599409103E-1,3.701973596E0
3.060788670E-1,2.704639435E0,-2.561351538E0,-7.271327972E-1,3.795302132E0
3.085424830E-1,2.775026321E0,-2.696949244E0,-2.294502258E-1,3.876461494E0
3.110036360E-1,2.766089439E0,-2.857859373E0,3.958415985E-2,3.977458722E0
3.134672520E-1,2.854936600E0,-2.938792706E0,4.904298782E-1,4.126461804E0
3.159284680E-1,2.864659548E0,-3.124684334E0,9.302234650E-1,4.339958779E0
3.183920830E-1,2.901971817E0,-3.140281200E0,1.284965515E0,4.464744429E0
3.208533140E-1,2.946447849E0,-3.268154621E0,1.237524033E0,4.570979686E0
3.233168520E-1,3.079002380E0,-3.275635481E0,1.197654724E0,4.652356424E0
3.257780830E-1,3.236455917E0,-3.389798403E0,9.424085617E-1,4.780534909E0
3.282416980E-1,3.360072613E0,-3.267592430E0,9.971046448E-1,4.791812384E0
3.307029290E-1,3.292603016E0,-3.224236488E0,1.343867302E0,4.800303624E0
3.331665450E-1,3.148136377E0,-3.139901638E0,1.874481201E0,4.825290118E0
3.356277750E-1,2.971160889E0,-3.177725315E0,2.196158409E0,4.873278872E0
3.380913140E-1,2.951200008E0,-3.131843090E0,2.772394180E0,5.119003040E0
3.405525550E-1,2.777782679E0,-3.096199989E0,3.556845665E0,5.472995712E0
3.430161700E-1,2.400424719E0,-2.757086992E0,4.156999588E0,5.535721551E0
3.454774010E-1,1.713687420E0,-2.260175228E0,4.575608253E0,5.383428975E0
3.479410160E-1,9.803812504E-1,-1.570381880E0,4.791140556E0,5.136367829E0
3.504021700E-1,2.180380821E-1,-9.440104961E-1,4.843035698E0,4.938996983E0
3.528657890E-1,-4.188339710E-1,-3.017625809E-1,4.877399445E0,4.904641464E0
3.553270200E-1,-9.430005550E-1,2.064027786E-1,4.901364326E0,4.995520435E0
3.577906360E-1,-1.404218435E0,6.878006458E-1,4.859002113E0,5.104390334E0
3.602518660E-1,-1.821099043E0,1.035726666E0,4.742043495E0,5.184217199E0
3.627154820E-1,-2.119628668E0,1.349062085E0,4.539707184E0,5.188615954E0
3.651766460E-1,-2.217477322E0,1.472905993E0,4.285697937E0,5.045182310E0
3.676402610E-1,-2.252273798E0,1.629828572E0,3.905019760E0,4.793564202E0
3.701014920E-1,-2.158890009E0,1.615518093E0,3.548158646E0,4.456471088E0
3.725651070E-1,-2.142676592E0,1.551838875E0,3.167937279E0,4.127359140E0
3.750262610E-1,-1.929154634E0,1.340511918E0,2.916110039E0,3.744637174E0
3.774898860E-1,-1.745890617E0,1.131697536E0,2.710532188E0,3.416995479E0
3.799511170E-1,-1.350362539E0,9.132463932E-1,2.616616249E0,3.082884778E0
3.824147320E-1,-9.660583735E-1,6.917643547E-1,2.557507515E0,2.820044573E0
3.848759630E-1,-4.282349348E-1,3.946830034E-1,2.629499435E0,2.693218727E0
3.873395790E-1,8.611798286E-3,1.522908807E-1,2.763732910E0,2.767938994E0
3.898007180E-1,5.708510876E-1,-1.735205650E-1,2.955567360E0,3.015188016E0
3.922643330E-1,1.065615654E0,-4.518509805E-1,3.165427208E0,3.370405827E0
3.947255640E-1,1.596549749E0,-8.223733306E-1,3.486173630E0,3.921565449E0
3.971891790E-1,1.879490137E0,-1.102098942E0,3.818851471E0,4.396672811E0
3.996504100E-1,2.132563591E0,-1.365465522E0,4.213723183E0,4.916074310E0
4.021140250E-1,2.166504383E0,-1.528831482E0,4.557370186E0,5.272635959E0
4.045751790E-1,2.220568180E0,-1.591264725E0,4.833191872E0,5.551827639E0
4.070387940E-1,2.147298336E0,-1.495910168E0,5.036427498E0,5.675758920E0
4.095000250E-1,2.148492098E0,-1.353395939E0,5.046330452E0,5.649172496E0
4.119636460E-1,2.028533697E0,-1.105171680E0,4.842570305E0,5.365336948E0
4.147192850E-1,1.341917753E0,-7.422772050E-1,4.422968864E0,4.681278915E0
4.174746920E-1,1.284917831E0,-4.973271787E-1,3.975969315E0,4.207930625E0
4.202300990E-1,1.266017795E0,-3.513771594E-1,3.513069153E0,3.750722842E0
4.229855060E-1,1.284917831E0,-2.412771583E-1,3.087068558E0,3.352494710E0
4.257409130E-1,1.302017808E0,-2.363271713E-1,2.691968918E0,2.999632904E0
4.284963200E-1,1.311017752E0,-3.123771548E-1,2.307068825E0,2.671874547E0
4.312517270E-1,1.242017746E0,-4.032771587E-1,1.967019081E0,2.361017707E0
4.316628760E-1,1.204700232E0,-3.763695359E-1,1.718526840E0,2.132203362E0
4.341241070E-1,1.209556580E0,-3.087939620E-1,1.452398300E0,1.915160999E0
4.365877230E-1,9.969551563E-1,-3.846062720E-1,1.278704643E0,1.666411454E0
4.390489530E-1,1.004682779E0,-4.097073674E-1,1.192614555E0,1.612320406E0
4.415125540E-1,7.479917407E-1,-3.597829044E-1,1.201816559E0,1.460581536E0
4.439737080E-1,7.076942325E-1,-3.500076234E-1,1.375760078E0,1.586206877E0
4.464373230E-1,4.387969971E-1,-3.032659292E-1,1.644443512E0,1.728787868E0
4.488985540E-1,5.314202309E-1,-5.717976689E-1,2.714369774E0,2.824387244E0
4.513621690E-1,1.015462875E-1,-6.286864877E-1,3.342497826E0,3.402623997E0
4.538233230E-1,-1.232872605E-1,-4.883536398E-1,3.383569717E0,3.420852680E0
4.562869380E-1,-5.660827160E-1,-2.942067981E-1,3.475231171E0,3.533304257E0
4.587194570E-1,-9.416403770E-1,-1.346540749E-1,3.589206696E0,3.713115003E0
4.611520160E-1,-9.056403637E-1,2.329590917E-2,3.661207199E0,3.771626350E0
4.636730150E-1,-7.910534143E-1,2.172247767E-1,3.817144394E0,3.904298072E0
4.661366220E-1,-6.811543107E-1,1.543563306E-1,4.090886116E0,4.150077865E0
4.685977760E-1,-1.239084005E-1,-2.045267820E-2,4.068791389E0,4.070729047E0
4.710613910E-1,-4.174351692E-3,-5.069571733E-2,3.823374748E0,3.823713110E0
4.735226220E-1,-1.357836723E-1,-3.348439932E-2,3.512355804E0,3.515138931E0
4.759862270E-1,-7.347503901E-1,2.300286293E-2,3.291227341E0,3.372323335E0
4.784474580E-1,-1.063574910E0,9.203583002E-2,3.071113586E0,3.251369072E0
4.809110730E-1,-1.418582797E0,4.987457395E-2,3.391931534E0,3.676963986E0
4.833722270E-1,-1.362089634E0,7.092392445E-2,2.874563217E0,3.181734128E0
4.858358430E-1,-1.249540329E0,1.252289414E-1,2.659581184E0,2.941157153E0
4.882970880E-1,-9.889001846E-1,1.421496868E-1,2.434241295E0,2.631285007E0
4.907607040E-1,-8.633861542E-1,1.427645683E-1,2.259833336E0,2.423358017E0
4.932218580E-1,-8.597078323E-1,9.672570229E-2,2.113333702E0,2.283557040E0
4.956854730E-1,-1.110830903E0,1.006029844E-1,2.085455894E0,2.364993138E0
4.981467040E-1,-1.120697498E0,1.605309248E-1,2.139986992E0,2.421007515E0
5.006103230E-1,-1.271139383E0,1.457976699E-1,2.270026207E0,2.605776520E0
5.030715540E-1,-9.684687853E-1,2.795696855E-1,2.372632980E0,2.577882514E0
5.055351690E-1,-6.842697859E-1,3.832302094E-1,2.449213028E0,2.571718295E0
5.079963230E-1,-3.072688580E-1,6.026723981E-1,2.520992279E0,2.610178201E0
5.104599390E-1,-1.585721970E-2,7.529944777E-1,2.600476265E0,2.707347214E0
5.129211740E-1,2.984592915E-1,9.034176469E-1,2.679322243E0,2.843239187E0
5.153847900E-1,5.279991627E-1,1.016519904E0,2.707704544E0,2.940027165E0
5.178460210E-1,7.260346413E-1,1.046888590E0,2.714647293E0,2.998735058E0
5.203096360E-1,8.830106258E-1,1.134496331E0,2.618667603E0,2.987341578E0
5.227707900E-1,1.032743692E0,1.277552128E0,2.436868668E0,2.938882079E0
5.252344100E-1,1.120951176E0,1.409500122E0,2.179610252E0,2.827352646E0
5.276956410E-1,1.180303574E0,1.527986407E0,1.882922173E0,2.696897272E0
5.301592560E-1,1.171421051E0,1.590614557E0,1.608339310E0,2.547358884E0
5.326204100E-1,1.151346207E0,1.657352448E0,1.359831810E0,2.433425112E0
5.350840260E-1,1.133840561E0,1.709913969E0,1.092172623E0,2.324272195E0
5.375452700E-1,1.118273020E0,1.797494888E0,8.439512253E-1,2.278985759E0
5.400088860E-1,1.112922192E0,1.889874220E0,6.298799515E-1,2.281878420E0
5.424701160E-1,1.029726744E0,2.102330685E0,4.109811783E-1,2.376770288E0
5.449337320E-1,1.018048286E0,2.316112995E0,1.871309280E-1,2.536891741E0
5.473948860E-1,8.915400505E-1,2.570461512E0,2.164268494E-2,2.720769092E0
5.498585110E-1,8.017454147E-1,2.810948133E0,-1.383800507E-1,2.926324343E0
5.523197420E-1,5.578773022E-1,3.043282032E0,-2.126054764E-1,3.101289038E0
5.547833570E-1,4.203839302E-1,3.183957100E0,-2.335691452E-1,3.220071429E0
5.572445110E-1,1.470034122E-1,3.353244781E0,-2.299938202E-1,3.364336149E0
5.597081270E-1,-1.126480103E-2,3.483883381E0,-1.911096573E-1,3.489139322E0
5.621693420E-1,-2.013466358E-1,3.549023151E0,-1.504516602E-2,3.554761898E0
5.646329580E-1,-7.514238358E-2,3.492612362E0,1.182947159E-1,3.495422883E0
5.670941880E-1,1.051776171E0,2.668225527E0,-2.081871033E-3,2.868041999E0
5.695578040E-1,1.839957833E0,2.145787239E0,5.704307556E-2,2.827207388E0
5.720189580E-1,1.028922677E0,2.419583797E0,1.249723434E0,2.911164078E0
5.744825590E-1,-9.040594101E-3,3.007742405E0,2.721685410E0,4.056373698E0
5.769437900E-1,3.121465445E-1,2.959541559E0,3.509915352E0,4.601720057E0
5.794074050E-1,1.571071029E0,2.530724049E0,3.807356834E0,4.834128096E0
5.818686360E-1,1.728675365E0,2.465096951E0,4.279551506E0,5.232550295E0
5.843321750E-1,1.625630498E0,2.606133938E0,4.977257729E0,5.848735172E0
5.867934150E-1,1.520474076E0,2.744690180E0,5.432293892E0,6.273354966E0
5.892570310E-1,1.808064342E0,2.663546085E0,5.729973793E0,6.572379636E0
5.917182610E-1,1.517832279E0,2.354216814E0,6.042032242E0,6.659752642E0
5.941818770E-1,1.239864111E0,2.008075714E0,6.419374466E0,6.839444394E0
5.966430310E-1,8.108822107E-1,1.741968870E0,6.855442047E0,7.119625774E0
5.991066600E-1,4.665930271E-1,1.520711780E0,7.324790001E0,7.495520124E0
6.015678910E-1,1.887514591E-1,1.199673533E0,7.715830803E0,7.810818695E0
6.040315060E-1,1.079295874E-1,8.621619940E-1,7.921733856E0,7.969243338E0
6.064927370E-1,8.404052258E-2,4.911245108E-1,8.115814209E0,8.131095029E0
6.089563520E-1,7.897961140E-2,2.255818844E-1,8.283718109E0,8.287165419E0
6.114174920E-1,8.897972107E-2,7.764530182E-2,8.417793274E0,8.418621608E0
6.138811080E-1,9.245723486E-2,-1.030640602E-1,8.505540848E0,8.506667717E0
6.163423380E-1,2.264831066E-1,-2.559110522E-1,8.543465614E0,8.550297642E0
6.188059540E-1,4.297427535E-1,-4.354744554E-1,8.478007317E0,8.500054405E0
6.212671080E-1,5.236770511E-1,-5.542252064E-1,8.367878914E0,8.402547277E0
6.237307080E-1,6.984863281E-1,-7.093731165E-1,8.215298653E0,8.275398801E0
6.261919390E-1,7.014890909E-1,-8.951090574E-1,8.072166443E0,8.151881884E0
6.286555540E-1,7.151154876E-1,-1.054961801E0,8.017456055E0,8.118123930E0
6.311167850E-1,7.741997838E-1,-1.307672024E0,7.923364639E0,8.067781519E0
6.335804000E-1,1.044335485E0,-1.683008671E0,7.829483032E0,8.076135174E0
6.360415690E-1,1.034224510E0,-1.831681252E0,7.868432045E0,8.144746736E0
6.385051850E-1,1.073875666E0,-2.080432892E0,7.853432655E0,8.194987153E0
6.409664150E-1,1.192734480E0,-2.318871498E0,7.817370415E0,8.240816754E0
6.434300310E-1,1.268063307E0,-2.460247040E0,7.835422516E0,8.309912518E0
6.458911850E-1,1.159975648E0,-2.464812040E0,7.890401840E0,8.347411760E0
6.483547990E-1,9.333908558E-1,-2.439982891E0,7.922588348E0,8.342190428E0
6.508160300E-1,7.964044809E-1,-2.465373993E0,7.852458000E0,8.268822508E0
6.532796450E-1,7.686190009E-1,-2.620277405E0,7.705043793E0,8.174614896E0
6.557408760E-1,6.105042696E-1,-2.621719122E0,7.491942406E0,7.960862241E0
6.581745960E-1,3.575469851E-1,-2.730113983E0,7.284400940E0,7.787416726E0
6.606083430E-1,1.064469814E-1,-2.629163980E0,7.023401260E0,7.500133296E0
6.631292660E-1,-1.389946342E-1,-2.530789375E0,6.743178368E0,7.203795449E0
6.655904960E-1,-3.346877098E-1,-2.424880743E0,6.386902809E0,6.839926167E0
6.680541120E-1,-4.876204133E-1,-2.397147417E0,6.073117256E0,6.547277496E0
6.705152660E-1,-6.863065362E-1,-2.222992420E0,5.785793304E0,6.236033685E0
6.729788960E-1,-9.482886195E-1,-2.086370707E0,5.536680222E0,5.992246816E0
6.754401270E-1,-1.086740375E0,-1.930262446E0,5.263406754E0,5.710548871E0
6.779037420E-1,-1.234039187E0,-1.890532255E0,4.991652489E0,5.478463242E0
6.803649730E-1,-1.317188740E0,-1.774141669E0,4.708256721E0,5.200985118E0
6.828285880E-1,-1.373366356E0,-1.791304946E0,4.447947502E0,4.987899913E0
6.852897370E-1,-1.453242421E0,-1.722809553E0,4.205560684E0,4.771449147E0
6.877533530E-1,-1.612326384E0,-1.689901471E0,4.075520515E0,4.697364242E0
6.902145830E-1,-1.818871737E0,-1.544264078E0,3.959971428E0,4.623247738E0
6.926781990E-1,-1.955544949E0,-1.603932381E0,3.924213409E0,4.668640703E0
6.951393530E-1,-1.768862486E0,-1.719029784E0,3.825675964E0,4.551893505E0
6.976029630E-1,-1.423340559E0,-2.038890600E0,3.654247284E0,4.420010909E0
7.000641940E-1,-9.841592908E-1,-2.362965107E0,3.428417206E0,4.278576649E0
7.025278090E-1,-6.535249949E-1,-2.774425507E0,3.130007744E0,4.233376937E0
7.049890400E-1,-3.778274953E-1,-3.082417488E0,2.768671989E0,4.160480233E0
7.074526550E-1,-1.825519800E-1,-3.494131088E0,2.417847633E0,4.253030033E0
7.099138090E-1,1.349890232E-2,-3.799402475E0,2.003451347E0,4.295283307E0
7.123774250E-1,1.749948263E-1,-4.161500454E0,1.601949692E0,4.462617173E0
7.148386550E-1,2.979193330E-1,-4.403955936E0,1.187496185E0,4.570966091E0
7.173022710E-1,4.782872200E-1,-4.763317108E0,8.349113464E-1,4.859529349E0
7.197634250E-1,6.075807214E-1,-4.903266430E0,5.082340240E-1,4.966837811E0
7.222270490E-1,7.103410363E-1,-5.109817982E0,2.623205185E-1,5.165620606E0
7.246882800E-1,8.188480139E-1,-5.215386391E0,5.238819122E-2,5.279537082E0
7.271518950E-1,8.650857806E-1,-5.386465073E0,-6.968402863E-2,5.455935781E0
7.296131260E-1,9.172491431E-1,-5.327962399E0,-1.931238174E-1,5.409789841E0
7.320767410E-1,9.858922362E-1,-5.416517258E0,-2.543315887E-1,5.511381611E0
7.345378900E-1,1.043167710E0,-5.404406548E0,-3.449916840E-1,5.514964031E0
7.370015060E-1,1.092633963E0,-5.479330063E0,-3.997650146E-1,5.601492567E0
7.394627360E-1,1.083163500E0,-5.509914875E0,-4.945173264E-1,5.637104974E0
7.419263520E-1,1.054386258E0,-5.644392967E0,-5.706672668E-1,5.770317450E0
7.443875060E-1,9.734059572E-1,-5.786804199E0,-6.594762802E-1,5.905042842E0
7.468511210E-1,9.135843515E-1,-5.971968651E0,-6.873750687E-1,6.080421895E0
7.493123520E-1,8.657578230E-1,-6.054154396E0,-7.681684494E-1,6.163797922E0
7.517759670E-1,8.460552692E-1,-6.189294815E0,-8.273353577E-1,6.301401719E0
7.542371980E-1,8.258174658E-1,-6.224903107E0,-9.215574265E-1,6.346704756E0
7.567008130E-1,8.349031210E-1,-6.312416077E0,-9.379434586E-1,6.436101139E0
7.591619820E-1,8.458299637E-1,-6.257206917E0,-9.736995697E-1,6.388752427E0
7.616255980E-1,8.657946587E-1,-6.326368332E0,-9.126300812E-1,6.450227153E0
7.640868280E-1,8.314856291E-1,-6.329082012E0,-8.735094070E-1,6.442954769E0
7.665504440E-1,8.449162245E-1,-6.355940819E0,-8.767185211E-1,6.471514698E0
7.690115980E-1,8.219487667E-1,-6.303358078E0,-9.427452087E-1,6.426250179E0
7.714752130E-1,9.336571693E-1,-6.400613785E0,-1.178391457E0,6.574813986E0
7.739364440E-1,7.533386946E-1,-6.291066170E0,-1.078639984E0,6.427168658E0
7.764000590E-1,5.963164568E-1,-6.216167927E0,-1.163071632E0,6.352091989E0
7.788612900E-1,4.764847755E-1,-6.092491627E0,-1.287997246E0,6.245352582E0
7.813249050E-1,5.538423061E-1,-6.113449097E0,-1.395153999E0,6.295034221E0
7.837860590E-1,5.414174199E-1,-6.050118446E0,-1.504912376E0,6.257941139E0
7.862496750E-1,5.743008256E-1,-6.022309303E0,-1.574704647E0,6.251217922E0
7.887109050E-1,5.603991747E-1,-5.895783424E0,-1.661538124E0,6.151017669E0
7.911745210E-1,5.387649536E-1,-5.803313255E0,-1.759931564E0,6.088191154E0
7.936356750E-1,4.396672249E-1,-5.666843891E0,-1.919785976E0,5.999333726E0
7.960992800E-1,3.761672974E-1,-5.665904045E0,-2.049374580E0,6.036878884E0
7.985605110E-1,2.844621539E-1,-5.523833275E0,-2.237740993E0,5.966668880E0
8.010241260E-1,2.013903856E-1,-5.489962578E0,-2.482583523E0,6.028554399E0
8.034853570E-1,4.316842556E-2,-5.380034447E0,-2.710508347E0,6.024407826E0
8.059489720E-1,-6.702566147E-2,-5.404846191E0,-2.966866493E0,6.165967206E0
8.084101260E-1,-2.511352897E-1,-5.350997925E0,-3.288390160E0,6.285678767E0
8.108737420E-1,-3.636501133E-1,-5.312710762E0,-3.633420467E0,6.446617822E0
8.133349720E-1,-5.335724354E-1,-5.217681885E0,-3.980668068E0,6.584422682E0
8.157985880E-1,-6.737285852E-1,-5.152836800E0,-4.322885036E0,6.759657708E0
8.182597420E-1,-7.855765820E-1,-4.958364964E0,-4.626951694E0,6.827239242E0
8.207233520E-1,-8.862129450E-1,-4.817726135E0,-4.832826614E0,6.881284152E0
8.231845830E-1,-1.018153906E0,-4.625425816E0,-5.096027374E0,6.957060899E0
8.256481980E-1,-1.047373772E0,-4.503585339E0,-5.263035774E0,7.005627615E0
8.281094290E-1,-1.092324495E0,-4.357444763E0,-5.445052624E0,7.058972712E0
8.305730440E-1,-1.035333395E0,-4.297720432E0,-5.636545181E0,7.163306341E0
8.330341980E-1,-1.006202936E0,-4.194549561E0,-5.837589264E0,7.258384034E0
8.354978130E-1,-9.269152880E-1,-4.200531483E0,-6.017856598E0,7.397177483E0
8.379590440E-1,-9.118971825E-1,-4.152448654E0,-6.216936111E0,7.531578912E0
8.404226600E-1,-8.260966539E-1,-4.238421440E0,-6.444202423E0,7.757215793E0
8.428838140E-1,-7.381899953E-1,-4.183319569E0,-6.729220867E0,7.957857787E0
8.453474340E-1,-6.308269501E-1,-4.214571476E0,-6.984019279E0,8.181508459E0
8.478086650E-1,-5.558266640E-1,-4.202539921E0,-7.242030621E0,8.391501211E0
8.502722800E-1,-4.513640404E-1,-4.223348141E0,-7.469612598E0,8.592759242E0
8.527335110E-1,-3.864165246E-1,-4.194379330E0,-7.666569233E0,8.747480751E0
8.551970490E-1,-2.986710370E-1,-4.147261143E0,-7.805152416E0,8.843606935E0
8.576295540E-1,-2.039528191E-1,-4.143202305E0,-7.946139812E0,8.963752563E0
8.600621130E-1,-1.630028188E-1,-4.073302269E0,-8.107239723E0,9.074452999E0
8.625831120E-1,-2.110051513E-1,-4.018245220E0,-8.236243248E0,9.166598097E0
8.650467280E-1,-2.840167284E-1,-3.955474615E0,-8.283332825E0,9.183683772E0
8.675078810E-1,-4.179667532E-1,-3.871474504E0,-8.336282730E0,9.200903260E0
8.699714970E-1,-5.076096654E-1,-3.708430052E0,-8.303001404E0,9.107686497E0
8.724327180E-1,-6.495096684E-1,-3.565479994E0,-8.271951675E0,9.031040633E0
8.748963330E-1,-7.364931107E-1,-3.399038315E0,-8.194875717E0,8.902352026E0
8.773575640E-1,-9.475377202E-1,-3.271987438E0,-8.119875908E0,8.805459346E0
8.798211020E-1,-1.062826872E0,-3.170968056E0,-8.066722870E0,8.732505782E0
8.822823330E-1,-1.186715841E0,-3.077968597E0,-8.018721581E0,8.670760114E0
8.847459480E-1,-1.334748268E0,-2.967234373E0,-7.844978809E0,8.492922070E0
8.872071790E-1,-1.468673468E0,-2.907236099E0,-7.684028625E0,8.345856422E0
8.896707950E-1,-1.422210097E0,-2.943209171E0,-7.604556084E0,8.277344684E0
8.921319480E-1,-1.432082534E0,-2.986258268E0,-7.545607090E0,8.240435983E0
8.945955640E-1,-1.401590705E0,-2.995558023E0,-7.481033802E0,8.179467655E0
8.970567950E-1,-1.487658739E0,-3.018506289E0,-7.517034531E0,8.235916274E0
8.995204100E-1,-1.549329519E0,-2.942861080E0,-7.532462120E0,8.234005033E0
9.019816410E-1,-1.709334970E0,-2.890812397E0,-7.539362907E0,8.253521394E0
9.044451790E-1,-1.796242714E0,-2.768316746E0,-7.556522369E0,8.245671338E0
9.069064100E-1,-1.825288773E0,-2.699323654E0,-7.599570274E0,8.268705802E0
9.093700300E-1,-1.873230934E0,-2.597752094E0,-7.731661320E0,8.368745237E0
9.118312610E-1,-1.901074529E0,-2.605712652E0,-7.813707352E0,8.453274239E0
9.142948770E-1,-1.833455920E0,-2.638166189E0,-7.833765507E0,8.466957155E0
9.167560300E-1,-1.671411157E0,-2.623174429E0,-7.776761532E0,8.375719627E0
9.192196460E-1,-1.469506264E0,-2.559460402E0,-7.655161858E0,8.204376227E0
9.216808720E-1,-1.160476446E0,-2.456419945E0,-7.502158165E0,7.978914817E0
9.241444870E-1,-8.170992732E-1,-2.262983084E0,-7.319423676E0,7.704719761E0
9.266056410E-1,-4.099874496E-1,-2.110000134E0,-7.122318268E0,7.439597286E0
9.290692560E-1,-3.033261932E-2,-1.990663171E0,-6.938327789E0,7.218313684E0
9.315304870E-1,2.546552718E-1,-1.887638092E0,-6.830318451E0,7.090929207E0
9.339940930E-1,5.052654743E-1,-1.795473456E0,-6.691969872E0,6.947048214E0
9.364553240E-1,7.471715212E-1,-1.738508940E0,-6.554855824E0,6.822522516E0
9.389188630E-1,8.568230271E-1,-1.634412169E0,-6.468194008E0,6.726290401E0
9.413800930E-1,9.238058329E-1,-1.529463649E0,-6.348175049E0,6.594846679E0
9.438437090E-1,9.538421035E-1,-1.445488691E0,-6.242100239E0,6.477890683E0
9.463049300E-1,9.488081336E-1,-1.350607872E0,-6.101075172E0,6.320403212E0
9.487685450E-1,9.197738171E-1,-1.213988543E0,-5.949640274E0,6.141495864E0
9.512296990E-1,8.266793489E-1,-1.042045116E0,-5.772600174E0,5.923864409E0
9.536933140E-1,7.733495235E-1,-8.216395378E-1,-5.619250298E0,5.731416485E0
9.561545450E-1,6.943488121E-1,-5.897748470E-1,-5.579281330E0,5.653170332E0
9.586181450E-1,5.973730683E-1,-3.237226009E-1,-5.664562702E0,5.705166212E0
9.610792990E-1,4.753529131E-1,-1.139929295E-1,-5.837564468E0,5.857995707E0
9.635429150E-1,4.907222390E-1,1.050250530E-1,-6.090294361E0,6.110934788E0
9.660041450E-1,4.647074938E-1,3.016307354E-1,-6.298221588E0,6.322541366E0
9.684677610E-1,5.222337842E-1,4.725975990E-1,-6.464729786E0,6.502984532E0
9.709290070E-1,5.742004514E-1,6.341707706E-1,-6.594628334E0,6.649887337E0
9.733925450E-1,7.179462314E-1,8.042652607E-1,-6.648420334E0,6.735264088E0
9.758537760E-1,8.358556628E-1,9.426186085E-1,-6.713179588E0,6.830370760E0
9.783173910E-1,9.126466513E-1,1.122211456E0,-6.791619778E0,6.943945684E0
9.807786220E-1,9.364742041E-1,1.219495296E0,-6.875391006E0,7.045222083E0
9.832422130E-1,9.418184161E-1,1.385466337E0,-6.978752613E0,7.177013790E0
9.857033670E-1,8.696525693E-1,1.497628927E0,-7.108533859E0,7.316450070E0
9.881669830E-1,7.532616854E-1,1.633703709E0,-7.208108902E0,7.429214287E0
9.906282130E-1,5.592151880E-1,1.716818333E0,-7.274709225E0,7.495437353E0
9.930918290E-1,3.564540148E-1,1.891713381E0,-7.340720177E0,7.588926913E0
9.955530650E-1,5.843524635E-2,2.007630348E0,-7.397356033E0,7.665172573E0
9.980166030E-1,-2.241928875E-1,2.197896481E0,-7.419690132E0,7.741628578E0
1.000477834E0,-4.800179899E-1,2.332513332E0,-7.407209396E0,7.780603239E0
1.002941449E0,-6.999096870E-1,2.553817034E0,-7.340875149E0,7.803864617E0
1.005402680E0,-9.263483286E-1,2.683773041E0,-7.194243431E0,7.734203094E0
1.007866294E0,-9.972470403E-1,2.904561043E0,-7.070039272E0,7.708205487E0
1.010327448E0,-1.022463799E0,2.990725279E0,-6.849072456E0,7.543186556E0
1.012791064E0,-9.940405488E-1,3.074481487E0,-6.554821014E0,7.307956729E0
1.015252294E0,-9.211866856E-1,3.139967203E0,-6.225788593E0,7.033379170E0
1.017715910E0,-7.799729109E-1,3.260410070E0,-5.854108810E0,6.746052293E0
1.020177079E0,-7.070256472E-1,3.293527603E0,-5.443543434E0,6.401513451E0
1.022640694E0,-6.258310080E-1,3.380792141E0,-4.998936176E0,6.067189040E0
1.025101925E0,-5.436172485E-1,3.450148821E0,-4.510569572E0,5.704759808E0
1.027565540E0,-4.712491632E-1,3.554948092E0,-4.011090279E0,5.380388177E0
1.030026771E0,-3.825514913E-1,3.628947496E0,-3.547631741E0,5.089331640E0
1.032490386E0,-3.114278913E-1,3.708904982E0,-3.162032604E0,4.883790913E0
1.034951540E0,-2.678997517E-1,3.776626587E0,-2.832158566E0,4.728192127E0
1.037415156E0,-2.215935588E-1,3.874624252E0,-2.609902859E0,4.676901724E0
1.039876386E0,-1.299048364E-1,3.856946230E0,-2.373042107E0,4.530368454E0
1.042340002E0,-4.005703330E-2,3.799074173E0,-2.222021580E0,4.401357636E0
1.044801137E0,8.384653926E-2,3.736152649E0,-2.162515163E0,4.317677465E0
1.047264752E0,1.828383505E-1,3.710743427E0,-2.173411369E0,4.304272717E0
1.049725983E0,2.961420119E-1,3.691927433E0,-2.316303730E0,4.368442655E0
1.052189598E0,3.586560488E-1,3.699159384E0,-2.516617298E0,4.488404720E0
1.054650829E0,4.377517104E-1,3.679177999E0,-2.745920658E0,4.611730431E0
1.057084529E0,4.311383367E-1,3.796950102E0,-2.980841637E0,4.846455117E0
1.059518276E0,4.261883199E-1,3.892950296E0,-3.169841290E0,5.038312445E0
1.062039199E0,4.189282656E-1,4.018968582E0,-3.333041191E0,5.238012308E0
1.064500429E0,3.356586695E-1,4.328707695E0,-3.479297161E0,5.563801379E0
1.066964045E0,1.058698595E-1,4.832056046E0,-3.630496979E0,6.044872403E0
1.069425199E0,1.701466888E-1,4.568957806E0,-3.497825146E0,5.756657544E0
1.071888809E0,7.690262794E-2,4.291136742E0,-3.469319820E0,5.518690838E0
1.074350040E0,-1.996427774E-2,4.028434753E0,-3.512667179E0,5.344858824E0
1.076813655E0,-1.960403025E-1,3.878319502E0,-3.698486805E0,5.362704412E0
1.079274886E0,-4.007404447E-1,3.720419407E0,-3.897879601E0,5.403293333E0
1.081738424E0,-6.490889788E-1,3.598613739E0,-4.131527424E0,5.517323282E0
1.084199641E0,-8.005130887E-1,3.462846994E0,-4.310623646E0,5.586913882E0
1.086663257E0,-9.640169740E-1,3.376607180E0,-4.531998634E0,5.733220421E0
1.089124487E0,-1.106453776E0,3.277386427E0,-4.697096825E0,5.833371266E0
1.091588103E0,-1.228054643E0,3.238081455E0,-4.891159058E0,5.993056536E0
1.094049257E0,-1.336515784E0,3.170157194E0,-5.050557613E0,6.110998550E0
1.096512867E0,-1.423821211E0,3.220659494E0,-5.174141884E0,6.258726600E0
1.098974098E0,-1.540284157E0,3.184985638E0,-5.256717682E0,6.336378270E0
1.101437713E0,-1.630882263E0,3.197699308E0,-5.300853729E0,6.401883167E0
1.103898867E0,-1.751152635E0,3.191078186E0,-5.258501053E0,6.395416238E0
1.106362482E0,-1.864107728E0,3.266363859E0,-5.155886650E0,6.381786398E0
1.108823708E0,-1.962501407E0,3.291628122E0,-4.955144882E0,6.264159023E0
1.111287324E0,-1.994458914E0,3.351884842E0,-4.776500702E0,6.166681223E0
1.113748554E0,-1.936286926E0,3.315991640E0,-4.506620884E0,5.920695855E0
1.116212093E0,-1.822888374E0,3.382121801E0,-4.174376965E0,5.673366985E0
1.118673324E0,-1.669977188E0,3.302788734E0,-3.772797585E0,5.285001310E0
1.121136934E0,-1.434509516E0,3.303061962E0,-3.268302441E0,4.863109779E0
1.123598165E0,-1.204186916E0,3.207774401E0,-2.683848381E0,4.352347053E0
1.126061780E0,-9.270241261E-1,3.208572626E0,-2.116816521E0,3.954140135E0
1.128522934E0,-7.227800488E-1,3.101883173E0,-1.463419914E0,3.505094587E0
1.130986549E0,-5.599774718E-1,3.163198471E0,-8.855285645E-1,3.332200500E0
1.133447785E0,-4.499993026E-1,3.121073008E0,-3.021326065E-1,3.167787904E0
1.135911401E0,-3.177007139E-1,3.180619478E0,2.448024750E-1,3.205807583E0
1.138372554E0,-1.882902384E-1,3.110548973E0,7.514343262E-1,3.205561055E0
1.140836170E0,-3.670441359E-2,3.105611563E0,1.210118294E0,3.333250167E0
1.143297401E0,3.522668406E-2,3.027990818E0,1.617973328E0,3.433337589E0
1.145761030E0,9.600701183E-2,3.010070562E0,1.918392181E0,3.570710111E0
1.148222261E0,1.268872023E-1,2.878384590E0,2.157979012E0,3.599732160E0
1.150685876E0,1.000971645E-1,2.844307899E0,2.293646812E0,3.655259576E0
1.153147030E0,1.428144276E-1,2.741845131E0,2.332147598E0,3.602363544E0
1.155610645E0,1.654477865E-1,2.714300871E0,2.273159027E0,3.544298824E0
1.158071881E0,2.202083617E-1,2.604892015E0,2.268602371E0,3.461287456E0
1.160535497E0,2.531439364E-1,2.604054928E0,2.192640305E0,3.413627898E0
1.162996650E0,2.936811745E-1,2.556367636E0,2.123165131E0,3.336029720E0
1.165460266E0,3.388802409E-1,2.512775421E0,1.994024277E0,3.225680231E0
1.167921497E0,4.221807718E-1,2.394626617E0,1.834767342E0,3.046119571E0
1.170385107E0,5.695751309E-1,2.292469501E0,1.665294647E0,2.890162367E0
1.172846338E0,6.233800650E-1,2.199969292E0,1.546910286E0,2.760688143E0
1.175309876E0,6.997513771E-1,2.160759687E0,1.387017250E0,2.661268733E0
1.177771107E0,7.918772697E-1,2.068514347E0,1.255842209E0,2.546165915E0
1.180234722E0,8.326328993E-1,2.054908276E0,1.071128845E0,2.462365239E0
1.182695982E0,8.130714893E-1,2.011688709E0,9.431428909E-1,2.365902623E0
1.185159597E0,8.026853800E-1,2.041578531E0,8.044347763E-1,2.336549171E0
1.187620751E0,7.779250741E-1,2.022936344E0,6.766910553E-1,2.270539508E0
1.190084367E0,7.640801668E-1,2.000027657E0,5.695781708E-1,2.215479276E0
1.192545597E0,7.081387043E-1,1.973421454E0,5.280866623E-1,2.162111973E0
1.195009213E0,6.516770720E-1,1.954978466E0,5.171632767E-1,2.124636831E0
1.197470367E0,5.202572346E-1,1.898948431E0,4.586429596E-1,2.021639458E0
1.199933982E0,3.893117905E-1,1.884993553E0,4.608879089E-1,1.979187215E0
1.202395213E0,2.541676760E-1,1.846223116E0,4.953002930E-1,1.928331761E0
1.204858828E0,1.114514992E-1,1.820776343E0,5.750141144E-1,1.912665460E0
1.207320074E0,-2.648559958E-2,1.774603486E0,6.961545944E-1,1.906449642E0
1.209783613E0,-1.275888979E-1,1.804742098E0,9.143218994E-1,2.027155027E0
1.212244843E0,-2.589214444E-1,1.803499937E0,1.174135208E0,2.167543731E0
1.214708459E0,-4.037396312E-1,1.923992038E0,1.482719421E0,2.462358206E0
1.217169689E0,-5.348221064E-1,1.971067190E0,1.818330765E0,2.734495808E0
1.219633300E0,-6.221898794E-1,2.086130619E0,2.155840874E0,3.063773993E0
1.222094454E0,-7.212228775E-1,2.132050514E0,2.465203285E0,3.338117594E0
1.224558069E0,-7.774071097E-1,2.196208239E0,2.749728203E0,3.603983578E0
1.227019300E0,-7.197193503E-1,2.211641550E0,2.951010704E0,3.757368556E0
1.229482915E0,-6.551297903E-1,2.205457926E0,3.169016838E0,3.916108709E0
1.231944054E0,-5.057708621E-1,2.168112278E0,3.356287003E0,4.027552291E0
1.234407670E0,-3.544843495E-1,2.179354191E0,3.567848206E0,4.195805603E0
1.236868900E0,-1.553359926E-1,2.118302107E0,3.826012611E0,4.376037659E0
1.239332516E0,6.029647961E-2,2.194060087E0,3.945496559E0,4.514917323E0
1.241793746E0,2.761193812E-1,2.210045815E0,4.136593819E0,4.698079697E0
1.244257352E0,4.894185364E-1,2.174383640E0,4.260833740E0,4.808552680E0
1.246718506E0,6.951304674E-1,2.192592144E0,4.421910286E0,4.984371300E0
1.249182121E0,8.119600415E-1,2.183117867E0,4.621143341E0,5.174963624E0
1.251643352E0,1.043377519E0,2.072546721E0,4.928136826E0,5.447074364E0
1.254106967E0,1.181707144E0,2.061260939E0,5.277163506E0,5.787372728E0
1.256568145E0,1.322100997E0,2.010170937E0,5.688191414E0,6.176103934E0
1.260989684E0,1.468050957E0,2.012270927E0,6.093191147E0,6.582657993E0
1.261634145E0,1.665599108E0,1.992923856E0,6.442289352E0,6.946154187E0
1.263956607E0,1.781467795E0,2.039240360E0,6.808486938E0,7.327183848E0
1.266417761E0,1.872099161E0,2.091939926E0,7.025578499E0,7.565693700E0
1.268881376E0,1.841080427E0,2.168485641E0,7.260593414E0,7.797956389E0
1.271342607E0,1.799764872E0,2.300217152E0,7.279536247E0,7.843583397E0
1.273806222E0,1.640001178E0,2.348519325E0,7.204896927E0,7.753430635E0
1.276267453E0,1.478732586E0,2.394250154E0,7.036949158E0,7.578768852E0
1.278731068E0,1.268560648E0,2.399244308E0,6.800361633E0,7.321921723E0
1.281192222E0,1.076294541E0,2.415791512E0,6.519474030E0,7.035481518E0
1.283655846E0,8.593145013E-1,2.389835835E0,6.243028641E0,6.739817753E0
1.286117077E0,6.851220727E-1,2.398331165E0,5.954206467E0,6.455537102E0
1.288580693E0,4.874460101E-1,2.391992807E0,5.694724083E0,6.195895059E0
1.291041847E0,3.322554827E-1,2.427355289E0,5.440721512E0,5.966900198E0
1.293505462E0,1.677512527E-1,2.481308937E0,5.091973305E0,5.666853330E0
1.295966699E0,1.689098775E-2,2.532480717E0,4.814158440E0,5.439656733E0
1.298430314E0,-9.150999784E-2,2.542880535E0,4.585897446E0,5.244527708E0
1.300891545E0,-2.243750840E-1,2.584670544E0,4.327019691E0,5.045192306E0
1.303355083E0,-3.622434735E-1,2.606266022E0,4.151073456E0,4.914799461E0
1.305816314E0,-4.529483914E-1,2.655100346E0,4.084221840E0,4.892401060E0
1.308279929E0,-4.335692525E-1,2.632339001E0,4.100348473E0,4.891834882E0
1.310741160E0,-3.921586573E-1,2.634961128E0,4.030505180E0,4.831333208E0
1.313204776E0,-3.634005785E-1,2.572977066E0,3.933591843E0,4.714383920E0
1.315665929E0,-2.911326289E-1,2.490631342E0,3.785766602E0,4.540928479E0
1.318129545E0,-1.285550296E-1,2.282618999E0,3.664361954E0,4.319076802E0
1.320590785E0,-6.050323695E-2,2.195402145E0,3.618680954E0,4.233001662E0
1.323054400E0,-1.119050384E-1,2.106773853E0,3.561612129E0,4.139577245E0
1.325515554E0,-9.466788173E-2,2.067580700E0,3.511879921E0,4.076414176E0
1.327979169E0,1.962780952E-3,2.017080784E0,3.609092712E0,4.134509517E0
1.330440400E0,4.997411370E-2,2.049907207E0,3.753286362E0,4.276888528E0
1.332904010E0,1.179656535E-1,2.058206081E0,3.914469719E0,4.424161090E0
1.335365241E0,2.239086181E-1,2.057325840E0,4.127631187E0,4.617365472E0
1.337828780E0,4.005117416E-1,1.967657447E0,4.373981476E0,4.812878498E0
1.340290010E0,5.361413956E-1,1.900156498E0,4.609145164E0,5.014205965E0
1.342753626E0,6.865974665E-1,1.832618117E0,4.859704018E0,5.238952985E0
1.345214848E0,8.321653008E-1,1.714331269E0,5.043683052E0,5.391675947E0
1.347678463E0,9.002610445E-1,1.572591662E0,5.224763870E0,5.530069799E0
1.350139617E0,8.778495789E-1,1.464386940E0,5.413807869E0,5.676650829E0
1.352603232E0,8.697589040E-1,1.343173862E0,5.721689224E0,5.941239277E0
1.355064463E0,8.414354324E-1,1.285068631E0,6.101653099E0,6.292025549E0
1.357528082E0,7.942520380E-1,1.162175179E0,6.490508080E0,6.641399143E0
1.359989313E0,7.550653815E-1,1.071184397E0,6.888451576E0,7.012012896E0
1.362452852E0,6.300653815E-1,9.963310957E-1,7.255475998E0,7.350618341E0
1.364914082E0,5.270689130E-1,8.674582243E-1,7.530553818E0,7.598652921E0
1.367377698E0,3.547992706E-1,7.755656242E-1,7.779039383E0,7.825652579E0
1.369838920E0,1.687940061E-1,7.466225624E-1,7.922111511E0,7.959006688E0
1.372302458E0,-7.563368231E-2,8.131554127E-1,7.953493118E0,7.995310811E0
1.374763689E0,-3.255776763E-1,9.073300362E-1,7.877418518E0,7.936181143E0
1.377227304E0,-4.951261580E-1,9.804943800E-1,7.664804459E0,7.743109616E0
1.379688535E0,-5.258538127E-1,1.023638844E0,7.391782761E0,7.480829573E0
1.382152150E0,-4.166453779E-1,9.862585068E-1,7.114045143E0,7.194159959E0
1.384613304E0,-3.286021352E-1,8.644437790E-1,6.822115898E0,6.884512164E0
1.387076920E0,-2.143738419E-1,7.316335440E-1,6.555993080E0,6.600173411E0
1.389538150E0,-1.242822856E-1,6.379485130E-1,6.260899544E0,6.294544264E0
1.392001766E0,-4.877746105E-3,5.262513161E-1,6.017271042E0,6.040241306E0
1.394462977E0,-1.558094472E-1,5.813972950E-1,5.764320374E0,5.795661202E0
1.396926515E0,-2.988612950E-1,5.866459608E-1,5.512889862E0,5.552065038E0
1.399387746E0,-4.016472101E-1,6.179286242E-1,5.328938484E0,5.379659992E0
1.401851361E0,-4.283168316E-1,5.562412739E-1,5.133684158E0,5.181464339E0
1.404312592E0,-4.609743059E-1,4.965467453E-1,4.913565636E0,4.960058794E0
1.406776203E0,-4.673859477E-1,4.179229736E-1,4.751196861E0,4.792387803E0
1.409237357E0,-4.241294563E-1,3.992527723E-1,4.619112015E0,4.655693759E0
1.411700973E0,-3.905435801E-1,4.006738663E-1,4.529460907E0,4.563888687E0
1.414456623E0,-5.037437081E-1,4.678633213E-1,4.590295792E0,4.641494292E0
1.417212040E0,-4.296436906E-1,3.358633518E-1,4.394246101E0,4.427956266E0
1.419967457E0,-2.374368906E-2,7.813453674E-3,4.195196152E0,4.195270619E0
1.422722874E0,2.353063375E-1,-1.981365681E-1,4.327196121E0,4.338116347E0
1.425478291E0,3.163063526E-1,-2.531865835E-1,4.511245728E0,4.529402959E0
1.428233708E0,2.252563387E-1,-2.071366310E-1,4.731295586E0,4.741181701E0
1.430989125E0,1.930631697E-2,-1.670866013E-1,5.033246040E0,5.036055636E0
1.431400203E0,-1.473907381E-1,-1.457232237E-1,5.280408859E0,5.284475093E0
1.433861434E0,-1.823437214E-1,-2.459218502E-1,5.471191406E0,5.479750194E0
1.436325050E0,-1.972026080E-1,-3.204219341E-1,5.612955093E0,5.625550992E0
1.438786280E0,-2.430824339E-1,-3.916196823E-1,5.674725533E0,5.693414170E0
1.441249905E0,-3.327315450E-1,-4.483190775E-1,5.742197037E0,5.769274398E0
1.443711059E0,-4.164882302E-1,-5.095899105E-1,5.881059647E0,5.917770432E0
1.446174674E0,-4.494168758E-1,-5.963784456E-1,5.998640060E0,6.044942130E0
1.448635905E0,-4.562216997E-1,-7.193892002E-1,6.108388901E0,6.167501441E0
1.451099520E0,-4.384607971E-1,-8.093053102E-1,6.185104370E0,6.253218293E0
1.453560684E0,-4.412323236E-1,-8.823164701E-1,6.246991158E0,6.324402489E0
1.456024299E0,-3.775538802E-1,-8.951758146E-1,6.303176880E0,6.377611265E0
1.458456818E0,-3.006716371E-1,-9.304373264E-1,6.340850830E0,6.415801298E0
1.460889377E0,-2.147216499E-1,-9.634373188E-1,6.297801018E0,6.374685444E0
1.463410376E0,-1.786070764E-1,-9.795280695E-1,6.210571289E0,6.289878494E0
1.465873920E0,-1.731248945E-1,-1.024458170E0,6.117340088E0,6.204944522E0
1.468335151E0,-1.301243454E-1,-1.071315885E0,5.921027184E0,6.018572337E0
1.470798766E0,-9.535998106E-3,-1.221645355E0,5.725396156E0,5.854286417E0
1.473259997E0,1.843470782E-1,-1.383257389E0,5.581065178E0,5.752883918E0
1.475723612E0,4.141470194E-1,-1.556874514E0,5.522061348E0,5.752263688E0
1.478184775E0,6.788340807E-1,-1.751076460E0,5.483571053E0,5.796260516E0
1.480648390E0,9.652758837E-1,-1.917038679E0,5.516022682E0,5.918893567E0
1.483109621E0,1.232657313E0,-2.030274868E0,5.547552109E0,6.034632921E0
1.485573237E0,1.370980740E0,-2.144608259E0,5.587347984E0,6.139820052E0
1.488034390E0,1.392137051E0,-2.193730116E0,5.605957985E0,6.178775147E0
1.490497973E0,1.329071760E0,-2.281311274E0,5.575277328E0,6.168835397E0
1.492959204E0,1.246471405E0,-2.328309536E0,5.483889580E0,6.086687209E0
1.495422819E0,1.083522916E0,-2.373896837E0,5.291144371E0,5.899628536E0
1.497884050E0,8.939350843E-1,-2.386475801E0,5.067506790E0,5.672214008E0
1.500347665E0,7.078849077E-1,-2.475276232E0,4.832644463E0,5.475632015E0
1.502808789E0,4.745646417E-1,-2.487264872E0,4.548996925E0,5.206253083E0
1.505272404E0,2.537293434E-1,-2.569598675E0,4.238812447E0,4.963340295E0
1.507733635E0,1.286829263E-1,-2.574686050E0,3.928819656E0,4.699062826E0
1.510197251E0,4.827439785E-3,-2.638615370E0,3.620142937E0,4.479704148E0
1.512658404E0,-8.587974310E-2,-2.688438177E0,3.309790611E0,4.264948892E0
1.515122020E0,-1.281856596E-1,-2.756015778E0,3.056718826E0,4.117715934E0
1.517583251E0,-2.226048410E-1,-2.744201899E0,2.757914543E0,3.896959020E0
1.520046866E0,-3.450315595E-1,-2.795010090E0,2.561369896E0,3.806802323E0
1.522508020E0,-5.066688061E-1,-2.783502817E0,2.361096382E0,3.685020670E0
1.524971635E0,-7.520422339E-1,-2.791725159E0,2.203571320E0,3.635247370E0
1.527432871E0,-1.014740586E0,-2.801811934E0,2.078936577E0,3.633431692E0
1.529896486E0,-1.316645265E0,-2.865460634E0,2.036597252E0,3.753950954E0
1.532357717E0,-1.584786177E0,-2.930596113E0,2.074824333E0,3.924899593E0
1.534821333E0,-1.763153672E0,-3.040326118E0,2.212849617E0,4.153191207E0
1.537282486E0,-1.868504882E0,-3.099770546E0,2.385537148E0,4.334821267E0
1.539746102E0,-1.907615423E0,-3.201189280E0,2.627355576E0,4.559562120E0
1.542207333E0,-1.853156686E0,-3.259181738E0,2.883419991E0,4.729753286E0
1.544670948E0,-1.665922284E0,-3.371915340E0,3.144001961E0,4.902025954E0
1.547132102E0,-1.486702919E0,-3.444815159E0,3.370332718E0,5.043429357E0
1.549595717E0,-1.205959201E0,-3.587352276E0,3.514984131E0,5.165128012E0
1.552056947E0,-8.457679152E-1,-3.755013466E0,3.449167252E0,5.168385069E0
1.554520562E0,-5.179464817E-1,-3.904689312E0,3.568025589E0,5.314665915E0
1.556981793E0,-2.225815803E-1,-4.039246559E0,3.557221413E0,5.386917440E0
1.559445332E0,6.619687378E-2,-4.196385384E0,3.458198547E0,5.438121873E0
1.561906562E0,1.948958486E-1,-4.332851410E0,3.298124313E0,5.448780572E0
1.564370174E0,2.803212404E-1,-4.446070671E0,3.152274132E0,5.457376349E0
1.566831405E0,2.459979057E-1,-4.547530174E0,3.096912384E0,5.507396115E0
1.569295020E0,2.034467757E-1,-4.681008339E0,3.052220345E0,5.591894016E0
1.571756174E0,1.740312874E-1,-4.787024498E0,3.025637627E0,5.665719150E0
1.574219789E0,1.521759331E-1,-4.946618080E0,2.995212555E0,5.784763279E0
1.576681034E0,1.023675501E-2,-4.944184303E0,2.960384369E0,5.762719742E0
1.579144649E0,5.950003862E-3,-5.066352844E0,2.992167473E0,5.883964032E0
1.581605803E0,1.008559465E-1,-5.190955162E0,3.042559624E0,6.017753441E0
1.584069419E0,2.019156218E-1,-5.307069302E0,3.014669418E0,6.106880234E0
1.586530649E0,2.175676972E-1,-5.448087692E0,2.963783264E0,6.205884823E0
1.588994246E0,2.921655774E-1,-5.659772873E0,2.903143883E0,6.367623898E0
1.591455477E0,4.024282098E-1,-5.813988686E0,2.810865402E0,6.470345988E0
1.593919015E0,4.201327860E-1,-6.029413223E0,2.731607437E0,6.632647629E0
1.596380246E0,3.992680907E-1,-6.187476635E0,2.622030258E0,6.731962923E0
1.598843861E0,3.849518299E-1,-6.324487686E0,2.558927536E0,6.833406364E0
1.601305116E0,3.082794547E-1,-6.373676300E0,2.481167793E0,6.846530466E0
1.603768731E0,2.062458098E-1,-6.460202217E0,2.426240921E0,6.903868121E0
1.606229885E0,1.429405510E-1,-6.488022804E0,2.405308723E0,6.921010184E0
1.608693501E0,1.033041626E-1,-6.535341740E0,2.385651588E0,6.957923318E0
1.611154731E0,9.304782003E-2,-6.569731712E0,2.360545158E0,6.981561868E0
1.613618347E0,5.995750427E-2,-6.621880531E0,2.336400986E0,7.022226587E0
1.616079501E0,2.194672823E-2,-6.547057152E0,2.197802544E0,6.906140386E0
1.618543116E0,-6.782114506E-4,-6.529664993E0,2.063491821E0,6.847957643E0
1.621004347E0,-2.057167888E-2,-6.558569908E0,1.922362328E0,6.834525540E0
1.623467962E0,8.280977607E-3,-6.610121727E0,1.768817902E0,6.842696441E0
1.625929193E0,-2.759903669E-2,-6.567492485E0,1.585470200E0,6.756214547E0
1.628392808E0,-5.462378263E-3,-6.594476700E0,1.419229507E0,6.745469975E0
1.630853962E0,-1.537737250E-2,-6.552232742E0,1.272617340E0,6.674694395E0
1.633317578E0,1.705020666E-3,-6.554507256E0,1.110320091E0,6.647885301E0
1.635778808E0,-3.590506315E-2,-6.467422485E0,9.234733582E-1,6.533119149E0
1.638242429E0,-1.271659136E-2,-6.455555916E0,7.369184494E-1,6.497492801E0
1.640703583E0,-1.528525352E-2,-6.391964912E0,5.305109024E-1,6.413960625E0
1.643167198E0,-1.750290394E-2,-6.302807808E0,3.583669662E-1,6.313011920E0
1.645628429E0,-4.922813177E-2,-6.162493706E0,1.509580612E-1,6.164538946E0
1.648092044E0,-3.175705671E-2,-6.024797440E0,-6.502819061E-2,6.025232059E0
1.650553289E0,-1.024473310E-1,-5.805173874E0,-2.882690430E-1,5.813229585E0
1.653016827E0,-1.157398224E-1,-5.722699165E0,-4.426717758E-1,5.740961570E0
1.655478058E0,-2.418543994E-1,-5.595795155E0,-6.554899216E-1,5.639244985E0
1.657911764E0,-3.187691867E-1,-5.562596321E0,-8.545608521E-1,5.636875542E0
1.660345511E0,-4.237692058E-1,-5.490595818E0,-1.031560898E0,5.602708332E0
1.662866511E0,-5.616505742E-1,-5.342390537E0,-1.197965622E0,5.503790480E0
1.665327665E0,-5.931085348E-1,-5.235163689E0,-1.319239616E0,5.431308291E0
1.667791280E0,-5.427880287E-1,-5.181309700E0,-1.485208988E0,5.417234976E0
1.670252511E0,-5.150296092E-1,-5.050795078E0,-1.635919571E0,5.334043425E0
1.672716121E0,-3.792406321E-1,-5.006450176E0,-1.769543648E0,5.323499934E0
1.675177275E0,-2.704474926E-1,-4.905382156E0,-1.957466125E0,5.288439238E0
1.677640890E0,-1.237157583E-1,-4.842123508E0,-2.094840050E0,5.277292913E0
1.680102121E0,-6.126731634E-2,-4.703372002E0,-2.249191284E0,5.213858773E0
1.682565737E0,-4.329240322E-2,-4.637417793E0,-2.432809353E0,5.236991443E0
1.685027000E0,-7.211548090E-2,-4.505441666E0,-2.704710007E0,5.255441129E0
1.687490616E0,-8.357048035E-2,-4.458373547E0,-2.949468136E0,5.346348379E0
1.689951770E0,-1.193410754E-1,-4.360648632E0,-3.302015781E0,5.471088283E0
1.692415385E0,-1.303309798E-1,-4.319499016E0,-3.628332138E0,5.642681279E0
1.694876616E0,-1.111230850E-1,-4.158508301E0,-3.949607849E0,5.736282924E0
1.697340266E0,-6.625086069E-2,-4.125697613E0,-4.260931015E0,5.931382898E0
1.699801420E0,-1.305669546E-2,-4.063182831E0,-4.520150185E0,6.077942323E0
1.702265035E0,7.853442430E-2,-4.084325314E0,-4.783944607E0,6.290787465E0
1.704726266E0,1.676772833E-1,-4.020977020E0,-5.069052219E0,6.472376864E0
1.707189881E0,3.022674918E-1,-4.063132763E0,-5.314626217E0,6.696690624E0
1.709651112E0,4.413221478E-1,-4.076842308E0,-5.523654461E0,6.879401649E0
1.712114651E0,5.614667535E-1,-4.201012135E0,-5.679488182E0,7.086630644E0
1.714575882E0,6.334543228E-1,-4.226905823E0,-5.799556732E0,7.204363643E0
1.717039497E0,7.064710855E-1,-4.293312550E0,-5.899894714E0,7.330783838E0
1.719500728E0,7.415519357E-1,-4.307075024E0,-5.942858696E0,7.376880371E0
1.721964333E0,7.565742135E-1,-4.335247040E0,-5.974863052E0,7.420630696E0
1.724425487E0,7.315083742E-1,-4.256031990E0,-6.028018951E0,7.415249509E0
1.726889102E0,6.639725566E-1,-4.199054241E0,-5.999661922E0,7.353153015E0
1.729350333E0,5.969169736E-1,-4.208929062E0,-5.891722679E0,7.265245340E0
1.731813948E0,5.387690067E-1,-4.255056381E0,-5.789037228E0,7.204771258E0
1.734275117E0,4.687245488E-1,-4.208959103E0,-5.732105255E0,7.126855554E0
1.736738733E0,3.936118186E-1,-4.184323788E0,-5.648678303E0,7.040672013E0
1.739199963E0,3.366312683E-1,-4.101004124E0,-5.514802933E0,6.880741735E0
1.741663579E0,3.500965536E-1,-4.027442932E0,-5.395266533E0,6.741792427E0
1.744124810E0,3.600132465E-1,-3.953111649E0,-5.328445435E0,6.644473794E0
1.746588352E0,4.103053510E-1,-3.911398888E0,-5.254511833E0,6.563328907E0
1.749049583E0,4.703073800E-1,-3.849210978E0,-5.196546078E0,6.483957535E0
1.751513198E0,5.100528598E-1,-3.847399712E0,-5.165957928E0,6.461405402E0
1.753974429E0,5.030010939E-1,-3.787175179E0,-5.217037201E0,6.466311397E0
1.756438044E0,4.849655032E-1,-3.708308935E0,-5.346473217E0,6.524685629E0
1.758899194E0,5.110647678E-1,-3.593248844E0,-5.456480503E0,6.553304810E0
1.761362810E0,4.884436429E-1,-3.462843657E0,-5.555648804E0,6.564685599E0
1.763824040E0,4.764475822E-1,-3.400773048E0,-5.610741615E0,6.578197405E0
1.766287656E0,5.017198324E-1,-3.353813171E0,-5.739559650E0,6.666508123E0
1.768748810E0,5.047225952E-1,-3.241833448E0,-5.895588398E0,6.747013529E0
1.771212410E0,5.309901834E-1,-3.122203350E0,-5.983559608E0,6.770014027E0
1.773673641E0,5.530396104E-1,-2.959103823E0,-6.031578064E0,6.741074261E0
1.776137256E0,5.500105619E-1,-2.759199858E0,-6.032583237E0,6.656407138E0
1.778598487E0,5.210612416E-1,-2.541076422E0,-6.024641037E0,6.559334861E0
1.781062102E0,4.659835994E-1,-2.398500681E0,-5.997102261E0,6.475737931E0
1.783523261E0,4.199427962E-1,-2.237397194E0,-5.958103180E0,6.378188744E0
1.785986877E0,3.394671679E-1,-2.063014030E0,-5.909052849E0,6.268027634E0
1.788448107E0,2.824904919E-1,-1.895039797E0,-5.885040283E0,6.189077140E0
1.790911723E0,2.072738409E-1,-1.786314130E0,-5.906473160E0,6.174164381E0
1.793372877E0,1.983068585E-1,-1.684364200E0,-5.946501732E0,6.183630909E0
1.795836492E0,2.245131731E-1,-1.582654476E0,-5.987050056E0,6.196770912E0
1.798297723E0,3.254818916E-1,-1.494677424E0,-6.061120987E0,6.251174824E0
1.800761338E0,3.524259627E-1,-1.369345665E0,-6.103849411E0,6.265483959E0
1.803222569E0,4.703284800E-1,-1.245400667E0,-6.141758442E0,6.284379720E0
1.805686108E0,5.598799586E-1,-1.165856838E0,-6.170729160E0,6.304806587E0
1.808147338E0,7.028034925E-1,-9.980006218E-1,-6.218675613E0,6.337338903E0
1.810610954E0,8.104327321E-1,-9.187178612E-1,-6.324032784E0,6.441601848E0
1.813072184E0,9.513774514E-1,-7.817935944E-1,-6.476970673E0,6.592986377E0
1.815535800E0,9.974020720E-1,-6.843638420E-1,-6.672025681E0,6.780788409E0
1.817996954E0,1.045339108E0,-5.714685917E-1,-6.836952209E0,6.939973034E0
1.820460583E0,1.037187457E0,-5.035181046E-1,-6.972435474E0,7.067117145E0
1.822921814E0,1.049124241E0,-4.338448048E-1,-7.077352524E0,7.167831034E0
1.825385429E0,1.016930223E0,-3.901233673E-1,-7.170536041E0,7.252787770E0
1.827846583E0,1.066965103E0,-4.073047638E-1,-7.187552452E0,7.277720931E0
1.830310198E0,1.073166370E0,-4.218308926E-1,-7.182379723E0,7.274352606E0
1.832771391E0,1.092147827E0,-4.240102768E-1,-7.223246098E0,7.317640042E0
1.835235007E0,1.078301907E0,-3.747098446E-1,-7.236621857E0,7.326106631E0
1.837696237E0,1.064281225E0,-3.029673100E-1,-7.303576469E0,7.386928520E0
1.840159853E0,1.039829850E0,-2.281448841E-1,-7.335401535E0,7.412247425E0
1.842621007E0,1.051754236E0,-1.414439678E-1,-7.397241116E0,7.472975946E0
1.845084617E0,1.061951876E0,-2.435207367E-2,-7.442479134E0,7.517900669E0
1.847545848E0,1.073867321E0,-6.926059723E-4,-7.504302502E0,7.580748481E0
1.850009463E0,1.071427107E0,1.528739929E-3,-7.492146015E0,7.568369064E0
1.852470617E0,1.049444437E0,-4.290294647E-2,-7.456023216E0,7.529638537E0
1.854934232E0,1.007512212E0,-9.981489182E-2,-7.413911343E0,7.482721782E0
1.857366751E0,9.360917807E-1,-9.424042702E-2,-7.407115459E0,7.466626314E0
1.859799310E0,8.640918136E-1,-5.134034157E-2,-7.292215347E0,7.343411684E0
1.862320309E0,8.140769601E-1,2.733731270E-2,-7.121973991E0,7.168401646E0
1.864783925E0,6.817587018E-1,1.929337978E-1,-6.871760845E0,6.908191912E0
1.867245069E0,5.437167883E-1,3.554339409E-1,-6.651499748E0,6.683143731E0
1.869708684E0,3.232751787E-1,5.668084621E-1,-6.481254578E0,6.514018696E0
1.872169915E0,1.173858047E-1,7.339739799E-1,-6.312928677E0,6.356537242E0
1.874633530E0,-5.282926559E-2,9.451031685E-1,-6.153136730E0,6.225520263E0
1.877094684E0,-2.245166302E-1,1.060894966E0,-6.025609016E0,6.122407195E0
1.879558309E0,-3.762688637E-1,1.119702339E0,-5.930079460E0,6.046582009E0
1.882019540E0,-4.710153341E-1,1.151310205E0,-5.858424664E0,5.989032491E0
1.884483156E0,-5.752461553E-1,1.183498383E0,-5.829862595E0,5.976526954E0
1.886944309E0,-6.797655821E-1,1.173016310E0,-5.779167175E0,5.936061131E0
1.889407925E0,-7.307313085E-1,1.246005535E0,-5.688183784E0,5.868724973E0
1.891869135E0,-7.881441116E-1,1.299255848E0,-5.510460854E0,5.716153927E0
1.894332750E0,-8.204882145E-1,1.416622639E0,-5.328051567E0,5.573881422E0
1.896793981E0,-8.315890431E-1,1.564953566E0,-5.090023518E0,5.389708657E0
1.899257596E0,-7.953415513E-1,1.762747765E0,-4.866576672E0,5.236737187E0
1.901718750E0,-7.771687508E-1,1.942778111E0,-4.690082550E0,5.135684217E0
1.904182370E0,-7.157251835E-1,2.139913321E0,-4.620654583E0,5.142172725E0
1.906643601E0,-6.403190494E-1,2.249417543E0,-4.558533669E0,5.123486799E0
1.909107217E0,-5.412582755E-1,2.369982481E0,-4.553075314E0,5.161421538E0
1.911568447E0,-4.281358719E-1,2.478730440E0,-4.615574360E0,5.256513254E0
1.914031986E0,-3.297174573E-1,2.587239742E0,-4.735547543E0,5.406286490E0
1.916493212E0,-2.808603048E-1,2.719196558E0,-4.886764050E0,5.599408478E0
1.918956827E0,-1.856743097E-1,2.843539953E0,-5.085223675E0,5.829210430E0
1.921418058E0,-1.610355377E-1,2.882516623E0,-5.291656494E0,6.027973372E0
1.923881596E0,-1.539906859E-1,3.007235050E0,-5.524229050E0,6.291604118E0
1.926342827E0,-1.772890091E-1,3.121668339E0,-5.727427483E0,6.525309968E0
1.928806438E0,-2.656314373E-1,3.239987850E0,-5.948272705E0,6.778645108E0
1.931267669E0,-3.414896727E-1,3.403000355E0,-6.109819412E0,7.001922583E0
1.933731285E0,-3.803039193E-1,3.576600313E0,-6.247979164E0,7.209295701E0
1.936192438E0,-3.909409642E-1,3.659773111E0,-6.348798752E0,7.338529802E0
1.938656054E0,-4.091223478E-1,3.760301352E0,-6.415638447E0,7.447661648E0
1.941117285E0,-4.314475656E-1,3.855432749E0,-6.403558731E0,7.487060378E0
1.943580900E0,-4.153413773E-1,3.994137287E0,-6.374170303E0,7.533637115E0
1.946042131E0,-4.631835818E-1,4.040007591E0,-6.269919395E0,7.473157940E0
1.948505669E0,-4.694684148E-1,4.155943871E0,-6.187139988E0,7.468130374E0
1.950966900E0,-4.958190322E-1,4.193337440E0,-6.150480270E0,7.460450587E0
1.953430514E0,-5.412316322E-1,4.246415615E0,-6.109955788E0,7.460330890E0
1.955891745E0,-5.331929326E-1,4.286694050E0,-6.021937370E0,7.411057298E0
1.958355361E0,-5.786119103E-1,4.316376686E0,-5.907036781E0,7.338867963E0
1.960816514E0,-5.987586379E-1,4.329843044E0,-5.738539696E0,7.213659996E0
1.963280130E0,-6.633743048E-1,4.374737740E0,-5.583111763E0,7.123870627E0
1.965741357E0,-6.414735317E-1,4.396622658E0,-5.413864136E0,7.003692167E0
1.968204972E0,-6.846617460E-1,4.432435989E0,-5.234731674E0,6.893305898E0
1.970666203E0,-6.228973269E-1,4.423038006E0,-5.094380379E0,6.775247429E0
1.973129741E0,-5.840322971E-1,4.442272186E0,-4.994935989E0,6.710012030E0
1.975590972E0,-5.185084939E-1,4.418508053E0,-4.914772987E0,6.629257725E0
1.978054591E0,-4.655358195E-1,4.418950558E0,-4.894231796E0,6.610397303E0
1.980515822E0,-3.909361959E-1,4.397008896E0,-4.839350700E0,6.550254464E0
1.982979438E0,-3.447894752E-1,4.396216393E0,-4.828983307E0,6.539470784E0
1.985440591E0,-2.077021003E-1,4.361760139E0,-4.752720356E0,6.454180231E0
1.987904207E0,-1.060821116E-1,4.339489937E0,-4.724187851E0,6.415635368E0
1.990365429E0,1.684504747E-2,4.302683830E0,-4.654054165E0,6.338264121E0
1.992829044E0,1.348064840E-1,4.292764664E0,-4.678002357E0,6.350567479E0
1.995290198E0,2.181375027E-1,4.213274956E0,-4.713263512E0,6.325671723E0
1.997753813E0,2.815101147E-1,4.182250977E0,-4.748082638E0,6.333621390E0
2.000215044E0,3.352258205E-1,4.053484917E0,-4.691369534E0,6.209030876E0
2.002678659E0,3.385751843E-1,3.937500477E0,-4.628673077E0,6.086309030E0
2.005139890E0,3.403923810E-1,3.827917814E0,-4.565457344E0,5.967597718E0
2.007603429E0,3.068616986E-1,3.776463985E0,-4.513667107E0,5.893134572E0
2.010064659E0,2.651766539E-1,3.695744514E0,-4.459733009E0,5.798108717E0
2.012528275E0,1.929495782E-1,3.696307898E0,-4.439282417E0,5.779891867E0
2.014989496E0,8.614191413E-2,3.570010900E0,-4.370331764E0,5.643775154E0
2.017453111E0,-7.246601582E-2,3.574237347E0,-4.203890800E0,5.518434723E0
2.019914265E0,-2.741761506E-1,3.511463642E0,-3.847615719E0,5.216291421E0
2.022377880E0,-4.850751162E-1,3.549041271E0,-3.414657593E0,4.948825951E0
2.024839111E0,-6.911306381E-1,3.467488289E0,-2.882817745E0,4.561992410E0
2.027302755E0,-7.969943285E-1,3.491638899E0,-2.323869228E0,4.269322001E0
2.029763986E0,-8.438974619E-1,3.464728117E0,-1.771082878E0,3.981612539E0
2.032227525E0,-8.614546061E-1,3.481476545E0,-1.288909912E0,3.811046016E0
2.034688755E0,-8.067303300E-1,3.449138165E0,-7.872629166E-1,3.628656887E0
2.037152371E0,-6.688272357E-1,3.442281961E0,-3.430194855E-1,3.523392873E0
2.039613592E0,-4.874804020E-1,3.361075640E0,5.384349823E-2,3.396669799E0
2.042077207E0,-2.554450035E-1,3.343549728E0,3.486318588E-1,3.371367839E0
2.044538361E0,-1.670014858E-2,3.281975985E0,6.673040390E-1,3.349170037E0
2.047001976E0,2.116740346E-1,3.384220839E0,9.103498459E-1,3.510910626E0
2.049463207E0,3.857512474E-1,3.403390408E0,1.217159271E0,3.635016779E0
2.051926822E0,5.274139047E-1,3.541580677E0,1.486341476E0,3.876876333E0
2.054388053E0,6.412954926E-1,3.595839739E0,1.705701828E0,4.031220915E0
2.056821730E0,7.640204430E-1,3.734061480E0,1.833213806E0,4.229375277E0
2.059255439E0,8.979704380E-1,3.717111349E0,1.946163177E0,4.290783006E0
2.061776438E0,1.112026691E0,3.679940939E0,1.991671562E0,4.329587081E0
2.064237674E0,1.365892291E0,3.487714291E0,2.028778076E0,4.259783235E0
2.066701289E0,1.615339160E0,3.350147247E0,2.013072968E0,4.229098007E0
2.069162443E0,1.773483396E0,3.221931458E0,1.940190315E0,4.158175577E0
2.071626058E0,1.814022064E0,3.196599245E0,1.819486618E0,4.101152806E0
2.074087289E0,1.795868516E0,3.185797215E0,1.700701714E0,4.033216327E0
2.076550899E0,1.713690877E0,3.196682453E0,1.657599449E0,3.987875507E0
2.079012130E0,1.626814723E0,3.138109446E0,1.754787445E0,3.946331969E0
2.081475669E0,1.459579349E0,3.081110477E0,1.940327644E0,3.922815955E0
2.083936899E0,1.278447628E0,3.033212900E0,2.171367645E0,3.943303981E0
2.086400515E0,9.616482258E-1,3.105496645E0,2.361588478E0,4.018205677E0
2.088861765E0,6.476452351E-1,3.223025084E0,2.558467865E0,4.165704365E0
2.091325381E0,3.741569519E-1,3.500616074E0,2.716639519E0,4.446845690E0
2.093786535E0,1.419611871E-1,3.663299799E0,2.856486320E0,4.647518961E0
2.096250150E0,5.070865154E-4,3.840070486E0,2.953992844E0,4.844813238E0
2.098711381E0,-1.075418890E-1,3.961949825E0,3.098743439E0,5.030986243E0
2.101175001E0,-2.288489342E-1,4.081720352E0,3.050615311E0,5.100888809E0
2.103636155E0,-2.697013319E-1,4.153329372E0,3.001322746E0,5.131356732E0
2.106099771E0,-3.229503036E-1,4.262238503E0,2.921532631E0,5.177482676E0
2.108561001E0,-4.566318691E-1,4.388657570E0,2.841423035E0,5.248096111E0
2.111024617E0,-6.124217510E-1,4.561605453E0,2.709654808E0,5.340930059E0
2.113485862E0,-7.858303785E-1,4.687570572E0,2.500705719E0,5.370696076E0
2.115949478E0,-9.745914936E-1,4.804133892E0,2.321409225E0,5.423879776E0
2.118410632E0,-1.078668833E0,4.876707077E0,2.179511070E0,5.449409773E0
2.120874247E0,-1.241227865E0,4.966976166E0,2.077005386E0,5.524984183E0
2.123335478E0,-1.413960218E0,5.016242981E0,2.020376205E0,5.589624062E0
2.125799093E0,-1.532016635E0,5.096775532E0,1.920306206E0,5.657894636E0
2.128260247E0,-1.497655392E0,5.109936714E0,1.957603455E0,5.673326730E0
2.130723863E0,-1.378697395E0,5.029025078E0,2.172392845E0,5.648999063E0
2.133185093E0,-1.243583322E0,4.872919083E0,2.491442680E0,5.612408261E0
2.135648709E0,-1.119141936E0,4.779840469E0,2.889069557E0,5.696145758E0
2.138109934E0,-1.022481322E0,4.734711647E0,3.325713158E0,5.875655746E0
2.140573473E0,-1.042422295E0,4.768865585E0,3.844141006E0,6.213384206E0
2.143034704E0,-1.075962305E0,4.779373169E0,4.361681938E0,6.559296616E0
2.145498319E0,-1.075036764E0,4.808007240E0,4.803493500E0,6.880856594E0
2.147959550E0,-9.906626940E-1,4.722950935E0,5.258786201E0,7.137402218E0
2.150423179E0,-8.902464509E-1,4.609470367E0,5.745681763E0,7.419744923E0
2.152884333E0,-6.341468692E-1,4.373740196E0,6.214947701E0,7.626094707E0
2.155347948E0,-2.827403843E-1,4.072249413E0,6.702453613E0,7.847677481E0
2.157809179E0,1.082903296E-1,3.764850616E0,7.219464302E0,8.142879820E0
2.160272795E0,2.865614891E-1,3.568913221E0,7.675010681E0,8.469064176E0
2.162734044E0,4.703760445E-1,3.438682556E0,8.058168411E0,8.773817270E0
2.165197660E0,5.555531383E-1,3.358784914E0,8.409111023E0,9.072112410E0
2.167658814E0,5.655196905E-1,3.250691175E0,8.725192070E0,9.328225035E0
2.170122429E0,5.776919127E-1,3.182173967E0,9.041664124E0,9.602689687E0
2.172583660E0,6.895049214E-1,3.026148319E0,9.333724022E0,9.836228688E0
2.175047275E0,7.689520121E-1,2.871521473E0,9.603826523E0,1.005337787E1
2.177508429E0,9.288958311E-1,2.689612389E0,9.898865700E0,1.029972837E1
2.179972044E0,1.045342326E0,2.508997440E0,1.009881115E1,1.045819274E1
2.182433275E0,1.153216839E0,2.359087706E0,1.026183605E1,1.059247294E1
2.184896891E0,1.155886889E0,2.259912729E0,1.036696720E1,1.067320425E1
2.187358131E0,1.122770905E0,2.238119364E0,1.039993858E1,1.069712650E1
2.189821747E0,1.076668620E0,2.279083729E0,1.037581253E1,1.067758979E1
2.192282901E0,9.765202403E-1,2.319229841E0,1.027978420E1,1.058330677E1
2.194746516E0,9.469512105E-1,2.315356016E0,1.017926788E1,1.048213169E1
2.197207747E0,9.607985020E-1,2.286355734E0,1.000928879E1,1.031195512E1
2.199671352E0,1.022732019E0,2.252383709E0,9.709150314E0,1.001932198E1
2.202132506E0,1.086485982E0,2.223535538E0,9.336073875E0,9.658511142E0
2.204596121E0,1.072492003E0,2.193332672E0,8.993004799E0,9.318534360E0
2.207057352E0,1.002429724E0,2.217420101E0,8.630881310E0,8.967381415E0
2.209520968E0,8.364117146E-1,2.299386978E0,8.323165894E0,8.675359101E0
2.211982179E0,6.473039389E-1,2.399460316E0,7.983262062E0,8.361153350E0
2.214445795E0,4.265565276E-1,2.529263020E0,7.601635933E0,8.022717168E0
2.216906949E0,2.685837448E-1,2.660106421E0,7.165620804E0,7.648164806E0
2.219370564E0,2.295222282E-1,2.735198736E0,6.756574631E0,7.292824783E0
2.221831795E0,2.295004427E-1,2.822975397E0,6.342662811E0,6.946310681E0
2.224295415E0,2.707161307E-1,2.819268465E0,5.882873535E0,6.529147183E0
2.226756569E0,2.756016850E-1,2.842780590E0,5.454933167E0,6.157406404E0
2.229220184E0,3.424927592E-1,2.769913912E0,5.106881142E0,5.819790320E0
2.231681415E0,3.634927869E-1,2.755813837E0,4.805980682E0,5.551944455E0
2.234145031E0,4.926322103E-1,2.710587502E0,4.562719345E0,5.329951118E0
2.236606275E0,6.812062263E-1,2.685764313E0,4.350005150E0,5.157510705E0
2.239069891E0,9.885200262E-1,2.596766472E0,4.182526588E0,5.021344104E0
2.241531045E0,1.351523638E0,2.424098015E0,4.095811844E0,4.947579407E0
2.243994660E0,1.673988104E0,2.213470697E0,4.082614899E0,4.936540602E0
2.246455891E0,1.878408194E0,2.037945986E0,4.115811348E0,4.962010100E0
2.248919506E0,1.948369384E0,1.888195515E0,4.138838768E0,4.948879864E0
2.251380660E0,1.891759515E0,1.813963175E0,4.176918983E0,4.931112314E0
2.253844275E0,1.694335103E0,1.744542360E0,4.210050583E0,4.861967235E0
2.256305501E0,1.449108243E0,1.710320711E0,4.280185699E0,4.831676858E0
2.258739216E0,1.197484851E0,1.605814934E0,4.375121117E0,4.811891141E0
2.261172963E0,1.061584830E0,1.365814686E0,4.528120995E0,4.847297376E0
2.263693963E0,1.076192856E0,1.017318964E0,4.791592598E0,5.015225674E0
2.266155117E0,1.216360211E0,5.970468521E-1,5.083391190E0,5.260880449E0
2.268618732E0,1.390913367E0,1.995193958E-1,5.378154755E0,5.558686585E0
2.271079968E0,1.432934642E0,-1.033289433E-1,5.566757202E0,5.749153356E0
2.273543583E0,1.328709006E0,-2.938377857E-1,5.749685287E0,5.908526819E0
2.276004737E0,1.108069539E0,-4.215202332E-1,5.982192993E0,6.098535104E0
2.278468352E0,8.031789064E-1,-5.886034966E-1,6.324664116E0,6.402571875E0
2.280929583E0,5.199447870E-1,-7.812442780E-1,6.765215874E0,6.829994950E0
2.283393160E0,3.119864166E-1,-9.163789749E-1,7.254858971E0,7.319157372E0
2.285854390E0,1.489363909E-1,-1.066107750E0,7.742407799E0,7.816882135E0
2.288318006E0,1.071894020E-1,-1.195174694E0,8.154451370E0,8.242269667E0
2.290779160E0,1.692873836E-1,-1.388181329E0,8.499073982E0,8.613359633E0
2.293242775E0,2.966669202E-1,-1.543206692E0,8.735071182E0,8.875300937E0
2.295704006E0,4.204990864E-1,-1.647111893E0,8.804746628E0,8.967349678E0
2.298167621E0,4.690317512E-1,-1.703325510E0,8.677180290E0,8.855211255E0
2.300628775E0,4.719338715E-1,-1.684994578E0,8.339704514E0,8.521302699E0
2.303092390E0,4.354317784E-1,-1.638296723E0,7.831686020E0,8.013047042E0
2.305553621E0,3.942168951E-1,-1.596682668E0,7.235042572E0,7.419612087E0
2.308017246E0,2.967188954E-1,-1.574354649E0,6.612036705E0,6.803356822E0
2.310478476E0,2.385779768E-1,-1.574158430E0,5.978283882E0,6.186660843E0
2.312942092E0,2.010350972E-1,-1.653014541E0,5.414385796E0,5.664666427E0
2.315403246E0,2.099078149E-1,-1.738925219E0,4.951310158E0,5.251989574E0
2.317866861E0,2.235143334E-1,-1.861238241E0,4.575839043E0,4.944943821E0
2.320328097E0,3.021004200E-1,-1.989105821E0,4.258316040E0,4.709677497E0
2.322791712E0,3.437432349E-1,-2.063051462E0,4.041465759E0,4.550580867E0
2.325252866E0,3.822171390E-1,-2.065008163E0,3.830741882E0,4.368630452E0
2.327716481E0,4.038916230E-1,-2.059724331E0,3.654115677E0,4.214042494E0
2.330177712E0,3.811980486E-1,-1.984087825E0,3.441048622E0,3.990329820E0
2.332641323E0,3.552033305E-1,-1.946486831E0,3.238272667E0,3.794916370E0
2.335102553E0,3.204874992E-1,-1.994903326E0,3.037863731E0,3.648419873E0
2.337566169E0,3.626952171E-1,-2.120442390E0,2.862465858E0,3.580717043E0
2.340027323E0,5.123636723E-1,-2.353772163E0,2.736337662E0,3.645586884E0
2.342490938E0,7.298888564E-1,-2.559141397E0,2.652652740E0,3.757460445E0
2.344952164E0,9.999715686E-1,-2.736295700E0,2.656143188E0,3.942379222E0
2.347415779E0,1.223409891E0,-2.948842049E0,2.763775826E0,4.222660062E0
2.349876933E0,1.388057590E0,-3.101648569E0,2.957440376E0,4.504817565E0
2.352340548E0,1.430299282E0,-3.204670668E0,3.198214531E0,4.748078170E0
2.354801779E0,1.389813542E0,-3.280144215E0,3.473440170E0,4.975511468E0
2.357265395E0,1.324049830E0,-3.338411331E0,3.713777542E0,5.166259943E0
2.359726625E0,1.281077385E0,-3.398890018E0,3.920526505E0,5.344543076E0
2.362190241E0,1.257784963E0,-3.545494080E0,4.081884384E0,5.551065790E0
2.364651395E0,1.316120386E0,-3.714335203E0,4.223663330E0,5.776486025E0
2.367115010E0,1.436366677E0,-3.945762873E0,4.309402466E0,6.016904810E0
2.369576237E0,1.559730053E0,-4.164762974E0,4.484261513E0,6.315584674E0
2.372039852E0,1.693770766E0,-4.432175636E0,4.689757347E0,6.671346510E0
2.374501083E0,1.738251209E0,-4.649813652E0,4.941776276E0,7.004529750E0
2.376964621E0,1.746306539E0,-4.816972733E0,5.254112244E0,7.338835623E0
2.379425852E0,1.702073693E0,-4.934528828E0,5.589533806E0,7.647843995E0
2.381889447E0,1.517937779E0,-4.995460987E0,5.925029755E0,7.897135124E0
2.384350678E0,1.316224694E0,-5.041580677E0,6.249745369E0,8.136909754E0
2.386814294E0,1.016813278E0,-5.081639767E0,6.550094604E0,8.352287788E0
2.389275448E0,7.484395504E-1,-5.083169937E0,6.723744392E0,8.462122489E0
2.391739063E0,5.106354356E-1,-5.128569603E0,6.753382683E0,8.495360639E0
2.394200304E0,3.215234876E-1,-5.164023399E0,6.671070099E0,8.442374742E0
2.396663919E0,1.961877495E-1,-5.216309071E0,6.416337967E0,8.271503059E0
2.399125150E0,1.171185970E-1,-5.261960030E0,6.086677551E0,8.046712604E0
2.401588765E0,1.164632291E-1,-5.339956760E0,5.664218903E0,7.785375885E0
2.404049919E0,1.074211448E-1,-5.380002975E0,5.185905457E0,7.473258106E0
2.406513543E0,1.146188974E-1,-5.450603485E0,4.676594734E0,7.182809628E0
2.408974774E0,5.953645706E-2,-5.427010536E0,4.160309792E0,6.838432972E0
2.411438376E0,6.305162609E-2,-5.396446228E0,3.707774162E0,6.547762720E0
2.414194015E0,9.564615786E-2,-5.429013729E0,3.338546753E0,6.374106422E0
2.416949422E0,-9.035385400E-2,-5.390913963E0,2.974646568E0,6.157811250E0
2.419704829E0,-2.724538445E-1,-5.378913879E0,2.730596542E0,6.038468605E0
2.422460236E0,-3.944038749E-1,-5.378913879E0,2.564546585E0,5.972032160E0
2.425215643E0,-5.474038720E-1,-5.381013870E0,2.401646614E0,5.918012143E0
2.427971050E0,-6.344038844E-1,-5.357013702E0,2.253596306E0,5.846260378E0
2.430726457E0,-6.674038768E-1,-5.381013870E0,2.121596336E0,5.822534605E0
2.431137606E0,-5.821102858E-1,-5.353227615E0,2.032406807E0,5.755569104E0
2.433598837E0,-5.524629951E-1,-5.322912216E0,1.955437660E0,5.697573717E0
2.436062453E0,-4.805894494E-1,-5.338109493E0,1.920253754E0,5.693307796E0
2.438523606E0,-4.284440577E-1,-5.322727203E0,1.949409485E0,5.684644803E0
2.440987222E0,-3.332374692E-1,-5.319675922E0,2.065418243E0,5.716288276E0
2.443448453E0,-2.930505872E-1,-5.264103889E0,2.186064720E0,5.707499222E0
2.445912068E0,-3.331235647E-1,-5.134343147E0,2.298112869E0,5.635048680E0
2.448373299E0,-6.788560748E-1,-4.841440201E0,2.512657166E0,5.496711273E0
2.450836914E0,-4.098455012E-1,-5.175171852E0,3.032274246E0,6.012076525E0
2.453298073E0,2.566859126E-1,-5.657173157E0,3.328466415E0,6.568727766E0
2.455761688E0,7.177039385E-1,-6.016270638E0,3.356206894E0,6.926379721E0
2.458194207E0,1.039943576E0,-6.324933052E0,3.336692810E0,7.226325461E0
2.460626766E0,1.318043590E0,-6.557883263E0,3.326792717E0,7.470650679E0
2.463147765E0,1.458487988E0,-6.739864349E0,3.360024452E0,7.670901054E0
2.465611308E0,1.727889538E0,-7.021972179E0,3.440223694E0,8.008048115E0
2.468072539E0,1.811167479E0,-7.110627651E0,3.445594788E0,8.106384932E0
2.470536154E0,1.674764514E0,-7.152912140E0,3.437816620E0,8.110953789E0
2.472997385E0,1.428422451E0,-7.108203888E0,3.450078011E0,8.029320737E0
2.475461000E0,1.199084282E0,-7.132537842E0,3.563601494E0,8.062887497E0
2.477922154E0,9.626047015E-1,-7.104692459E0,3.696304321E0,8.066345417E0
2.480385769E0,7.346920371E-1,-7.132290840E0,3.825687408E0,8.126821591E0
2.482847000E0,4.969933629E-1,-7.102995872E0,3.903565407E0,8.120183228E0
2.485310616E0,2.898780406E-1,-7.130991936E0,3.963144302E0,8.163429918E0
2.487771846E0,1.166025326E-1,-7.158859253E0,3.978945732E0,8.191145896E0
2.490235486E0,4.362366349E-2,-7.249174118E0,3.961653709E0,8.261182030E0
2.492696640E0,5.747297406E-2,-7.290513992E0,3.852190018E0,8.245863530E0
2.495160255E0,1.208450794E-1,-7.396150112E0,3.650690079E0,8.248950119E0
2.497621486E0,8.663521707E-2,-7.332519531E0,3.473305702E0,8.114012622E0
2.500085101E0,7.714831829E-2,-7.358453751E0,3.215334892E0,8.030639572E0
2.502546260E0,3.597541153E-2,-7.322736263E0,2.873104095E0,7.866288054E0
2.505009875E0,3.321872652E-2,-7.268880367E0,2.560127258E0,7.706619029E0
2.507471106E0,-3.767845035E-2,-7.160979271E0,2.202847481E0,7.492234701E0
2.509934722E0,-4.701665044E-2,-7.041583061E0,1.907758713E0,7.295590852E0
2.512395952E0,-1.181199849E-1,-6.837796688E0,1.572772980E0,7.017337866E0
2.514859554E0,-1.549560726E-1,-6.748313904E0,1.239397049E0,6.862933555E0
2.517320708E0,-2.145038843E-1,-6.507722855E0,8.527832031E-1,6.566864386E0
2.519784323E0,-2.345194519E-1,-6.207644463E0,4.077596664E-1,6.225441116E0
2.522245554E0,-2.378664613E-1,-6.004256248E0,4.849433899E-3,6.008968053E0
2.524709169E0,-1.987023056E-1,-5.932669163E0,-3.714113235E-1,5.947603919E0
2.527170308E0,-1.596491933E-1,-5.778043270E0,-7.760105133E-1,5.832106327E0
2.529633923E0,-8.088624477E-2,-5.719295025E0,-1.174744606E0,5.839255351E0
2.532095154E0,-2.551341057E-2,-5.625982285E0,-1.627799988E0,5.856796087E0
2.534558770E0,5.704364181E-2,-5.600485802E0,-2.033665657E0,5.958564525E0
2.537020000E0,8.415031433E-2,-5.466034889E0,-2.384205341E0,5.963979694E0
2.539483631E0,1.323755085E-1,-5.416321754E0,-2.671307564E0,6.040691080E0
2.541944785E0,1.633161306E-1,-5.285308838E0,-2.933186054E0,6.046878707E0
2.544408400E0,1.875284314E-1,-5.215092182E0,-3.134611130E0,6.087539759E0
2.546869631E0,1.586216688E-1,-5.071849823E0,-3.286258221E0,6.045520205E0
2.549333246E0,1.535043418E-1,-5.053076744E0,-3.433447838E0,6.111113828E0
2.551794472E0,1.265591085E-1,-4.935075283E0,-3.536952496E0,6.072974412E0
2.554258087E0,1.111895144E-1,-4.880423069E0,-3.604123592E0,6.067997966E0
2.556719241E0,1.022505164E-1,-4.805668354E0,-3.695545197E0,6.063164009E0
2.559182857E0,7.462182641E-2,-4.798465729E0,-3.681714535E0,6.048624941E0
2.561644087E0,7.259148359E-2,-4.758765221E0,-3.799043179E0,6.089650649E0
2.564107684E0,1.326321065E-1,-4.777220249E0,-3.901366234E0,6.169285459E0
2.566568838E0,1.736211777E-1,-4.754632473E0,-4.067524433E0,6.259507112E0
2.569032453E0,2.723885775E-1,-4.829958439E0,-4.184746742E0,6.396467725E0
2.571493684E0,2.893534601E-1,-4.781525612E0,-4.289959431E0,6.430432685E0
2.573957299E0,3.042991459E-1,-4.838522434E0,-4.351274014E0,6.514405795E0
2.576418544E0,2.702696919E-1,-4.792091846E0,-4.402463913E0,6.512977697E0
2.578882159E0,2.317113280E-1,-4.793884277E0,-4.389760494E0,6.504230454E0
2.581343313E0,1.597543061E-1,-4.718522549E0,-4.392941475E0,6.448868993E0
2.583806929E0,8.010226488E-2,-4.714086533E0,-4.396440029E0,6.446527215E0
2.586268159E0,3.516715765E-2,-4.665763855E0,-4.477602005E0,6.466800507E0
2.588731775E0,4.015326500E-2,-4.673782825E0,-4.534888744E0,6.512378529E0
2.591193005E0,3.031671047E-2,-4.668557167E0,-4.619027615E0,6.567477539E0
2.593656544E0,3.923124075E-2,-4.692143440E0,-4.684175968E0,6.630177498E0
2.596117775E0,4.438924789E-2,-4.676008224E0,-4.768296242E0,6.678598084E0
2.598581390E0,6.522059441E-2,-4.685183048E0,-4.826191902E0,6.726612981E0
2.601042621E0,5.281686783E-3,-4.617032528E0,-4.893343925E0,6.727691434E0
2.603506236E0,1.351875067E-2,-4.599706650E0,-4.939153671E0,6.749275740E0
2.605967390E0,-2.046608925E-2,-4.458531857E0,-4.920343399E0,6.639932555E0
2.608431005E0,-4.808956385E-2,-4.369916916E0,-4.914132118E0,6.576258886E0
2.610892236E0,-5.102175474E-2,-4.254871845E0,-4.990255356E0,6.558138925E0
2.613355837E0,-4.641538858E-2,-4.179528236E0,-5.010707855E0,6.525166962E0
2.615817067E0,-1.335287094E-2,-4.083413601E0,-5.070766449E0,6.510538942E0
2.618280683E0,5.468547344E-3,-4.010606766E0,-5.141961098E0,6.521101170E0
2.620741837E0,3.852206469E-2,-3.945574760E0,-5.250001431E0,6.567462155E0
2.623205452E0,8.467978239E-2,-3.884121418E0,-5.346930504E0,6.609329442E0
2.625666693E0,1.378204823E-1,-3.797068119E0,-5.441905022E0,6.637096583E0
2.628130308E0,2.212110162E-1,-3.745886803E0,-5.582786560E0,6.726671393E0
2.630591539E0,2.572383285E-1,-3.630813599E0,-5.718696594E0,6.778825096E0
2.633055077E0,3.137869239E-1,-3.545279026E0,-5.874783993E0,6.868810128E0
2.635516308E0,3.757550120E-1,-3.425279856E0,-6.001831055E0,6.920672650E0
2.637979910E0,4.432006478E-1,-3.329679966E0,-6.087354660E0,6.952631318E0
2.640441140E0,4.723126292E-1,-3.212700605E0,-6.271390915E0,7.062214129E0
2.642904756E0,5.211653113E-1,-3.093934059E0,-6.362030506E0,7.093622023E0
2.645365910E0,5.142758489E-1,-2.952975273E0,-6.519954681E0,7.175956498E0
2.647829525E0,5.682268143E-1,-2.874353647E0,-6.649728775E0,7.266614300E0
2.650290751E0,5.662851930E-1,-2.814407110E0,-6.726796627E0,7.313778720E0
2.652754366E0,5.766888261E-1,-2.784621000E0,-6.766285896E0,7.339571442E0
2.655215597E0,5.715980530E-1,-2.671739340E0,-6.816194534E0,7.343393178E0
2.657649321E0,5.602087975E-1,-2.584212303E0,-6.822455406E0,7.316958719E0
2.660083068E0,5.312587619E-1,-2.479212284E0,-6.820355415E0,7.276398657E0
2.662603991E0,5.418416262E-1,-2.350055933E0,-6.830365658E0,7.243635155E0
2.665065221E0,5.388557911E-1,-2.216227055E0,-6.827293396E0,7.198191650E0
2.667528837E0,5.613647699E-1,-2.150077343E0,-6.841705799E0,7.193531902E0
2.669990068E0,5.613777637E-1,-2.021229982E0,-6.843714237E0,7.157998337E0
2.672453606E0,5.393540263E-1,-1.915152311E0,-6.816841125E0,7.101269891E0
2.674914837E0,4.933247566E-1,-1.793249369E0,-6.713821888E0,6.966671871E0
2.677378452E0,4.470415711E-1,-1.711566925E0,-6.630341053E0,6.862268574E0
2.679839683E0,4.020751715E-1,-1.644901037E0,-6.524147987E0,6.740316819E0
2.682303298E0,2.727824450E-1,-1.595025778E0,-6.396839142E0,6.598338314E0
2.684764463E0,1.648557782E-1,-1.575332880E0,-6.305628777E0,6.501523312E0
2.687228079E0,7.451355457E-2,-1.527573824E0,-6.178238869E0,6.364720699E0
2.689689309E0,4.761463404E-2,-1.500859737E0,-6.076959610E0,6.259735235E0
2.692152925E0,7.775801420E-2,-1.484166861E0,-6.017814636E0,6.198620054E0
2.694614156E0,1.277951002E-1,-1.455514908E0,-5.969629288E0,6.145838354E0
2.697077670E0,1.553816795E-1,-1.386465788E0,-5.997303963E0,6.157441487E0
2.699538901E0,1.335698366E-1,-1.339847565E0,-5.978051186E0,6.127815955E0
2.702002516E0,8.102810383E-2,-1.231923819E0,-6.025107861E0,6.150294837E0
2.704463747E0,1.919907331E-2,-1.157321930E0,-6.004913330E0,6.115451476E0
2.706927362E0,-4.236871004E-2,-1.084709406E0,-6.012360096E0,6.109571468E0
2.709388597E0,-1.242538691E-1,-1.049157619E0,-5.985084534E0,6.077615290E0
2.711852136E0,-1.643623114E-1,-9.876205921E-1,-5.956954479E0,6.040506276E0
2.714313366E0,-2.430613637E-1,-1.019137383E0,-5.929664612E0,6.021514946E0
2.716776982E0,-2.657145858E-1,-9.568483829E-1,-5.881999493E0,5.965239400E0
2.719238213E0,-2.515532970E-1,-9.603433609E-1,-5.841794014E0,5.925546028E0
2.721701838E0,-2.374498248E-1,-9.212052822E-1,-5.779562950E0,5.857332967E0
2.724162992E0,-1.682538390E-1,-8.977315426E-1,-5.689244270E0,5.762094380E0
2.726626607E0,-1.305972934E-1,-7.806892395E-1,-5.642422199E0,5.697671421E0
2.729087838E0,-5.047065020E-2,-6.833834648E-1,-5.543039799E0,5.585235040E0
2.731551453E0,1.471549273E-2,-5.465545654E-1,-5.470288277E0,5.497544203E0
2.734012684E0,6.482040882E-2,-3.584299088E-1,-5.393879890E0,5.406164440E0
2.736476299E0,1.578406096E-1,-1.922807693E-1,-5.368061066E0,5.373822211E0
2.738937453E0,2.629123330E-1,-4.253387451E-2,-5.351360321E0,5.357983698E0
2.741401069E0,3.476106226E-1,1.277899742E-1,-5.409188271E0,5.421852190E0
2.743862300E0,4.525800943E-1,2.204360962E-1,-5.470360756E0,5.493475004E0
2.746325910E0,5.454935431E-1,3.311076164E-1,-5.574108124E0,5.610514846E0
2.748787064E0,6.573942304E-1,4.205555916E-1,-5.650188446E0,5.703828859E0
2.751250679E0,7.336679697E-1,5.263557434E-1,-5.737128258E0,5.807749969E0
2.753711910E0,7.655389905E-1,5.884380341E-1,-5.712153435E0,5.793186181E0
2.756175525E0,7.851986289E-1,6.806416512E-1,-5.675248146E0,5.769597166E0
2.758636761E0,7.469892502E-1,7.295398712E-1,-5.540179729E0,5.637713437E0
2.761100376E0,6.906214356E-1,8.422632217E-1,-5.373865128E0,5.483137032E0
2.763561530E0,6.404123306E-1,9.186687469E-1,-5.181509018E0,5.301142888E0
2.766025146E0,6.244868040E-1,1.003560543E0,-4.986360550E0,5.124539888E0
2.768486376E0,6.081113815E-1,1.079302788E0,-4.800714493E0,4.957978782E0
2.770949977E0,6.686173677E-1,1.196197033E0,-4.567296028E0,4.768451482E0
2.773411208E0,7.309244275E-1,1.272776127E0,-4.344954491E0,4.586157336E0
2.775874823E0,7.795894742E-1,1.378578186E0,-4.156608582E0,4.448104367E0
2.778335977E0,7.953984737E-1,1.466542244E0,-3.954673290E0,4.292184260E0
2.780799592E0,8.269667029E-1,1.586327553E0,-3.781403542E0,4.183219069E0
2.783260823E0,7.653502226E-1,1.697009563E0,-3.583172321E0,4.037911132E0
2.785724438E0,6.916293502E-1,1.848981380E0,-3.375559807E0,3.910433136E0
2.788185669E0,5.081778765E-1,1.986722469E0,-3.202795982E0,3.803053119E0
2.790649208E0,4.115921259E-1,2.127308369E0,-3.038039207E0,3.731558816E0
2.793110438E0,3.193606734E-1,2.209889412E0,-2.890468121E0,3.652452383E0
2.795574030E0,2.890579104E-1,2.288544655E0,-2.893054962E0,3.700102448E0
2.798035261E0,2.920177579E-1,2.361050129E0,-2.950715542E0,3.790323771E0
2.800498876E0,3.926179409E-1,2.442020893E0,-3.096198082E0,3.962834522E0
2.802960030E0,4.338109493E-1,2.470314980E0,-3.283736229E0,4.132017868E0
2.805423645E0,4.586661458E-1,2.590365410E0,-3.448313236E0,4.337191691E0
2.807884905E0,4.349979162E-1,2.705146313E0,-3.605311394E0,4.528278923E0
2.810348520E0,3.804942369E-1,2.822983265E0,-3.748615742E0,4.708092008E0
2.812809751E0,2.889178991E-1,2.993073463E0,-3.860778809E0,4.893625989E0
2.815273367E0,2.414194942E-1,3.076395988E0,-3.983301640E0,5.038768461E0
2.817734520E0,2.363196611E-1,3.150358200E0,-4.118478775E0,5.190613759E0
2.820198141E0,2.496744394E-1,3.192523956E0,-4.320417881E0,5.377783670E0
2.822659372E0,2.188571692E-1,3.170833111E0,-4.523763657E0,5.528699549E0
2.825122987E0,2.345048785E-1,3.211683273E0,-4.753018379E0,5.741174592E0
2.827584218E0,2.209846377E-1,3.253650665E0,-4.992974281E0,5.963628848E0
2.830047756E0,1.853572130E-1,3.347359657E0,-5.214479446E0,6.199191066E0
2.832508992E0,1.334420443E-1,3.434106827E0,-5.333809853E0,6.345110245E0
2.834972607E0,7.563269138E-2,3.521247864E0,-5.420108795E0,6.463937358E0
2.837433838E0,6.101489067E-3,3.597609997E0,-5.441110611E0,6.522922627E0
2.839897454E0,-9.096634388E-2,3.696836948E0,-5.426195621E0,6.566466114E0
2.842358607E0,-1.670724154E-1,3.702230453E0,-5.347627163E0,6.506269269E0
2.844822218E0,-2.593250275E-1,3.719709873E0,-5.262777805E0,6.449831102E0
2.847283449E0,-3.420828581E-1,3.705788612E0,-5.170975685E0,6.370940233E0
2.849747064E0,-3.586769104E-1,3.667576313E0,-5.087907791E0,6.282242500E0
2.852208295E0,-3.356118202E-1,3.566617012E0,-4.943186760E0,6.104792179E0
2.854671910E0,-2.770911455E-1,3.513579845E0,-4.805841446E0,5.959709291E0
2.857104381E0,-2.325106859E-1,3.411801815E0,-4.692318916E0,5.806230245E0
2.859536902E0,-2.305606604E-1,3.404752254E0,-4.615368843E0,5.739958684E0
2.862057901E0,-2.590868473E-1,3.357645035E0,-4.468913078E0,5.595720711E0
2.864521517E0,-3.112746477E-1,3.343445778E0,-4.353024483E0,5.497667116E0
2.866982747E0,-3.745299578E-1,3.254723549E0,-4.234606743E0,5.354007129E0
2.869446363E0,-4.381043911E-1,3.211303234E0,-4.174733162E0,5.285149089E0
2.871907497E0,-4.580618143E-1,3.143749714E0,-4.132870674E0,5.212830603E0
2.874371112E0,-4.503060579E-1,3.074395180E0,-4.182988644E0,5.210765324E0
2.876832343E0,-4.040837288E-1,2.999077797E0,-4.321685314E0,5.275861564E0
2.879295958E0,-3.248447180E-1,2.933741570E0,-4.517346859E0,5.396182570E0
2.881757189E0,-2.419786453E-1,2.833668232E0,-4.671808720E0,5.469371630E0
2.884220804E0,-1.698839664E-1,2.877013683E0,-4.793827534E0,5.593465001E0
2.886681958E0,-1.238027811E-1,2.899009228E0,-4.852594376E0,5.653959127E0
2.889145574E0,-8.314573765E-2,2.997244358E0,-4.843544960E0,5.696517773E0
2.891606804E0,-7.089948654E-2,3.053950310E0,-4.767970085E0,5.662612292E0
2.894070420E0,-4.960298538E-2,3.202832222E0,-4.683648586E0,5.674254028E0
2.896531660E0,-3.603112698E-2,3.224848270E0,-4.468897820E0,5.511079053E0
2.898995199E0,-6.132209301E-2,3.326818943E0,-4.269035339E0,5.412591561E0
2.901456430E0,-7.622075081E-2,3.422945976E0,-4.028766632E0,5.287090820E0
2.903920045E0,-9.317040443E-2,3.518338203E0,-3.836803436E0,5.206577095E0
2.906381276E0,-1.158312559E-1,3.500381470E0,-3.557305336E0,4.992044528E0
2.908844857E0,-1.318904161E-1,3.543221474E0,-3.312367916E0,4.852174225E0
2.911306011E0,-1.289861202E-1,3.498682499E0,-2.984339714E0,4.600402176E0
2.913769627E0,-2.050853968E-1,3.522844791E0,-2.760625839E0,4.480351601E0
2.916230857E0,-1.923030615E-1,3.492326736E0,-2.500661373E0,4.299608564E0
2.918694473E0,-2.003993988E-1,3.533859253E0,-2.282574177E0,4.211705832E0
2.921155703E0,-1.501401663E-1,3.444068432E0,-1.965665817E0,3.968373916E0
2.923619319E0,-1.419005394E-1,3.390831947E0,-1.739320278E0,3.813543246E0
2.926080473E0,-1.436780691E-1,3.231226444E0,-1.458257198E0,3.547954591E0
2.928544088E0,-2.108068466E-1,3.147885799E0,-1.207294941E0,3.378044643E0
2.931005319E0,-1.936227679E-1,3.005945683E0,-8.542246819E-1,3.130958165E0
2.933468920E0,-1.930099130E-1,2.921429157E0,-5.313749313E-1,2.975627743E0
2.935930151E0,-1.300984025E-1,2.768010616E0,-1.853489876E-1,2.777258111E0
2.938393766E0,-1.115030646E-1,2.737724304E0,7.498407364E-2,2.741019867E0
2.940854920E0,-4.691082239E-2,2.647680759E0,3.407268524E-1,2.669926744E0
2.943318536E0,3.643393517E-3,2.676928520E0,5.126962662E-1,2.725585632E0
2.945779766E0,8.697366714E-2,2.558750153E0,6.918320656E-1,2.652055499E0
2.948243382E0,1.920250654E-1,2.525765896E0,8.209266663E-1,2.662759392E0
2.950704536E0,2.958881259E-1,2.358216763E0,9.635744095E-1,2.564607519E0
2.953168151E0,3.875743151E-1,2.292017937E0,1.021648407E0,2.539158431E0
2.955629382E0,4.529517591E-1,2.136826515E0,1.110887527E0,2.450564007E0
2.958093002E0,5.794703960E-1,2.054149628E0,1.123908997E0,2.412154237E0
2.960554233E0,7.331405878E-1,1.894209862E0,1.156064034E0,2.337094387E0
2.963017848E0,8.545393348E-1,1.780617714E0,1.122398376E0,2.271698711E0
2.965479002E0,9.802780151E-1,1.627910137E0,1.143230438E0,2.217659180E0
2.967942618E0,1.014186144E0,1.640130520E0,1.145265579E0,2.242818518E0
2.970403857E0,9.920992851E-1,1.610426426E0,1.221946716E0,2.251863238E0
2.972867473E0,9.487770796E-1,1.689157009E0,1.223116875E0,2.291166567E0
2.975328704E0,8.741601110E-1,1.737480640E0,1.321872711E0,2.351667991E0
2.977792319E0,8.123844266E-1,1.862205982E0,1.404436111E0,2.469862419E0
2.980253473E0,7.153828740E-1,1.884840965E0,1.578231812E0,2.560315170E0
2.982717098E0,5.851210952E-1,1.906183720E0,1.776002884E0,2.670222708E0
2.985178329E0,4.639568925E-1,1.850516796E0,2.022379875E0,2.780231784E0
2.987641944E0,3.172706068E-1,1.863567352E0,2.184113503E0,2.888580223E0
2.990103175E0,1.827318966E-1,1.825078011E0,2.414253235E0,3.031982746E0
2.992566791E0,1.576918364E-2,1.912620544E0,2.543094635E0,3.182089932E0
2.995027973E0,-1.114221811E-1,1.924361229E0,2.734189034E0,3.345350611E0
2.997491589E0,-2.874243259E-1,2.050730705E0,2.899450302E0,3.562993295E0
2.999952820E0,-3.712830544E-1,2.139446735E0,3.081700325E0,3.769875374E0
3.002416435E0,-4.660364389E-1,2.312374592E0,3.227708817E0,3.997795695E0
3.004877666E0,-4.589506388E-1,2.341112137E0,3.436944962E0,4.183782068E0
3.007341261E0,-4.277117252E-1,2.436931133E0,3.548217773E0,4.325669894E0
3.009802415E0,-3.607221842E-1,2.419802189E0,3.692325592E0,4.429315004E0
3.012266030E0,-2.669353485E-1,2.449327469E0,3.810195923E0,4.537405922E0
3.014727261E0,-1.709910631E-1,2.404231071E0,3.973295212E0,4.647218505E0
3.017190877E0,-7.106935978E-2,2.339123249E0,4.155241966E0,4.768918559E0
3.019652107E0,-4.407840967E-2,2.310210705E0,4.322710037E0,4.901513896E0
3.022115646E0,3.547275066E-2,2.264380455E0,4.533117294E0,5.067329629E0
3.024576877E0,2.051527202E-1,2.114581585E0,4.764893532E0,5.217063665E0
3.027040492E0,3.438988924E-1,2.028312683E0,4.965273857E0,5.374594242E0
3.029501723E0,5.624552965E-1,1.863664627E0,5.154063225E0,5.509443668E0
3.031965343E0,5.749374628E-1,1.891242504E0,5.260589600E0,5.619711223E0
3.034426497E0,5.865135789E-1,1.836715698E0,5.384422302E0,5.719224271E0
3.036890112E0,6.464011669E-1,1.767858505E0,5.508265495E0,5.821009099E0
3.039351343E0,7.149544954E-1,1.605290413E0,5.776044846E0,6.037450728E0
3.041814959E0,7.210739851E-1,1.557500839E0,6.003890991E0,6.244394574E0
3.044276189E0,7.596628666E-1,1.513016224E0,6.233557701E0,6.459376702E0
3.046739805E0,8.219308257E-1,1.521939278E0,6.411458969E0,6.640683365E0
3.049200959E0,9.004102945E-1,1.464408398E0,6.612177849E0,6.831992869E0
3.051664574E0,1.024689436E0,1.465108395E0,6.741972923E0,6.975007523E0
3.054125805E0,1.158165932E0,1.405632496E0,6.911790848E0,7.147727175E0
3.056589434E0,1.170920014E0,1.381704330E0,7.064749718E0,7.293205681E0
3.058791772E0,1.208342075E0,1.338386059E0,7.230220795E0,7.451675017E0
3.060994435E0,1.201442003E0,1.224386215E0,7.419219971E0,7.614946452E0
3.063975434E0,8.870215416E-1,1.255823135E0,7.595942497E0,7.749983315E0
3.066439050E0,6.692863703E-1,1.220003605E0,7.724324226E0,7.848664714E0
3.068900280E0,5.250803232E-1,1.031585217E0,7.854982376E0,7.939812689E0
3.071363915E0,4.677418768E-1,8.797540665E-1,8.005938530E0,8.067701124E0
3.073825145E0,4.435707331E-1,8.542571068E-1,8.168537140E0,8.225053751E0
3.076288761E0,5.875503421E-1,8.096156120E-1,8.289654732E0,8.349794513E0
3.078749915E0,7.544098496E-1,7.913217545E-1,8.306454659E0,8.378097238E0
3.081213530E0,8.153064251E-1,8.420672417E-1,8.252773285E0,8.335590483E0
3.083674771E0,8.660310507E-1,9.437479973E-1,8.127381325E0,8.227696960E0
3.086138386E0,8.019053936E-1,1.024813175E0,7.982596397E0,8.087962633E0
3.088599540E0,6.866158247E-1,1.068430901E0,7.913314819E0,8.014582791E0
3.091063232E0,5.165193081E-1,1.058280945E0,7.781296730E0,7.869900225E0
3.093524386E0,3.344165683E-1,1.010882378E0,7.685901642E0,7.759304200E0
3.095988016E0,2.263309360E-1,8.662624359E-1,7.603240013E0,7.655775271E0
3.098449246E0,2.450964898E-1,7.330126762E-1,7.502848625E0,7.542553769E0
3.100912862E0,3.775177002E-1,6.123819351E-1,7.333041191E0,7.368244320E0
3.103374016E0,4.803310931E-1,5.221476555E-1,7.083641052E0,7.119081871E0
3.105837631E0,4.924041927E-1,5.563130379E-1,6.801195145E0,6.841651956E0
3.108298882E0,4.011167288E-1,5.882201195E-1,6.551775932E0,6.590346380E0
3.110762497E0,2.308827341E-1,6.268758774E-1,6.356453896E0,6.391461987E0
3.113223728E0,6.383846700E-2,6.057190895E-1,6.205120087E0,6.234940758E0
3.115687343E0,-1.184619218E-1,5.280232430E-1,6.104455948E0,6.128394912E0
3.118148497E0,-2.694311142E-1,4.139809608E-1,6.073071480E0,6.093124860E0
3.120612103E0,-4.173985720E-1,2.502617836E-1,6.089913368E0,6.109328716E0
3.123073333E0,-4.981932938E-1,1.074099541E-1,6.185364723E0,6.206325017E0
3.125536949E0,-6.420367956E-1,1.474523544E-2,6.315762520E0,6.348329298E0
3.127998180E0,-7.827094197E-1,-3.209686279E-2,6.476310730E0,6.523516300E0
3.130461795E0,-9.602031112E-1,-6.539201736E-2,6.650613785E0,6.719890613E0
3.132922949E0,-1.069734454E0,-1.212663651E-1,6.824078560E0,6.908479248E0
3.135386564E0,-1.100672007E0,-2.378492355E-1,7.046725273E0,7.136132580E0
3.137847795E0,-1.021269679E0,-4.027583599E-1,7.307182312E0,7.389189360E0
3.140311410E0,-8.200165033E-1,-6.132934093E-1,7.590378761E0,7.659138699E0
3.142772641E0,-6.179405451E-1,-7.751841545E-1,7.854723930E0,7.917035368E0
3.145236262E0,-3.833167851E-1,-8.762092590E-1,8.086267471E0,8.142628325E0
3.147697415E0,-1.972837448E-1,-9.520320892E-1,8.274724960E0,8.331648045E0
3.150161031E0,1.210561395E-2,-1.093278408E0,8.417074203E0,8.487787837E0
3.152622262E0,2.739045024E-1,-1.238071680E0,8.526614189E0,8.620382514E0
3.155085877E0,5.855710506E-1,-1.467836857E0,8.571329117E0,8.715797228E0
3.157547103E0,9.371774197E-1,-1.602620840E0,8.493614197E0,8.694146145E0
3.160010718E0,1.269898772E0,-1.705929041E0,8.391565323E0,8.656858862E0
3.162471872E0,1.485406637E0,-1.699606657E0,8.198890686E0,8.503934627E0
3.164935487E0,1.591012120E0,-1.654656410E0,8.026767731E0,8.348545239E0
3.167396718E0,1.609474182E0,-1.548218250E0,7.846956253E0,8.158560494E0
3.169860334E0,1.546177745E0,-1.441740990E0,7.652543068E0,7.939187497E0
3.172321564E0,1.466659546E0,-1.364156008E0,7.400829315E0,7.667091130E0
3.174785103E0,1.370431304E0,-1.320181370E0,7.058752060E0,7.310741512E0
3.177246334E0,1.345695376E0,-1.256434202E0,6.619850159E0,6.871094460E0
3.179709949E0,1.343806386E0,-1.353967190E0,6.173576355E0,6.461585546E0
3.182171180E0,1.399741173E0,-1.406509161E0,5.703482628E0,6.038812587E0
3.184634795E0,1.481013656E0,-1.481249332E0,5.252839088E0,5.655070249E0
3.187096026E0,1.579393506E0,-1.559142351E0,4.851349831E0,5.334885556E0
3.189559564E0,1.672751069E0,-1.604766607E0,4.513108253E0,5.073609968E0
3.192020795E0,1.720408201E0,-1.646004438E0,4.296217918E0,4.911885930E0
3.194484411E0,1.657062888E0,-1.650919914E0,4.173675537E0,4.784449965E0
3.196945641E0,1.480950832E0,-1.641859770E0,4.178682327E0,4.727610904E0
3.199409257E0,1.221754074E0,-1.632089138E0,4.243692398E0,4.708006281E0
3.201870411E0,8.875274062E-1,-1.633330107E0,4.336811066E0,4.718410999E0
3.204334026E0,5.796512365E-1,-1.638659000E0,4.441014290E0,4.769046739E0
3.206795276E0,3.871247470E-1,-1.691898584E0,4.526990891E0,4.848302065E0
3.209258891E0,1.846674979E-1,-1.764198542E0,4.564620018E0,4.897168007E0
3.211720122E0,9.150909632E-2,-1.889199734E0,4.552528381E0,4.929803669E0
3.214183737E0,-2.704404294E-3,-2.029900551E0,4.537406921E0,4.970771080E0
3.216644891E0,-5.067998916E-2,-2.185567856E0,4.557221413E0,5.054457668E0
3.219108501E0,-3.227724135E-2,-2.446940184E0,4.681240082E0,5.282288026E0
3.221569732E0,6.887167692E-4,-2.770211220E0,4.870882034E0,5.603531250E0
3.224033348E0,8.751482517E-2,-3.063027859E0,5.154694557E0,5.996721978E0
3.226494578E0,1.753812879E-1,-3.424751282E0,5.547616959E0,6.521942491E0
3.228958194E0,2.933733165E-1,-3.711750746E0,6.044095993E0,7.098891313E0
3.231419348E0,3.910567760E-1,-3.957267523E0,6.514224052E0,7.632038172E0
3.233882963E0,4.896705151E-1,-4.161756516E0,6.984415054E0,8.145062809E0
3.236344194E0,5.613909960E-1,-4.349820614E0,7.375949860E0,8.581418039E0
3.238807809E0,5.815269947E-1,-4.489902020E0,7.772140503E0,8.994640726E0
3.241269040E0,5.492068529E-1,-4.597383022E0,8.086788177E0,9.318460272E0
3.243732655E0,4.828464091E-1,-4.706704140E0,8.290062904E0,9.545226423E0
3.246193809E0,4.636213481E-1,-4.857318401E0,8.348849297E0,9.670148467E0
3.248657425E0,5.149050355E-1,-5.024245262E0,8.342052460E0,9.751820696E0
3.251118655E0,6.256626844E-1,-5.193711281E0,8.185783386E0,9.714583898E0
3.253582271E0,7.734775543E-1,-5.426691055E0,7.958086967E0,9.663249532E0
3.256043487E0,1.010036230E0,-5.631663322E0,7.681403160E0,9.578087464E0
3.258477202E0,1.241073012E0,-5.818352699E0,7.413958549E0,9.505802003E0
3.260910949E0,1.485123038E0,-5.979453087E0,7.097908020E0,9.398922700E0
3.263431871E0,1.656959414E0,-6.129529476E0,6.881250381E0,9.363132644E0
3.265893102E0,1.769012809E0,-6.178198814E0,6.647108078E0,9.245733757E0
3.268356717E0,1.757195234E0,-6.213435650E0,6.502028465E0,9.163563271E0
3.270817948E0,1.663086057E0,-6.148694038E0,6.345474243E0,8.990958624E0
3.273281564E0,1.412834048E0,-6.098339081E0,6.259881020E0,8.852793343E0
3.275742717E0,1.170906067E0,-5.981124878E0,6.118080139E0,8.635726976E0
3.278206333E0,8.410236239E-1,-5.896581650E0,5.931789398E0,8.406135935E0
3.280667564E0,4.925605357E-1,-5.799559593E0,5.629401207E0,8.097386326E0
3.283131174E0,2.431201339E-1,-5.804482937E0,5.319610596E0,7.877143293E0
3.285592405E0,2.917818725E-2,-5.796337605E0,4.865197182E0,7.567597017E0
3.288056020E0,-1.439710557E-1,-5.856110096E0,4.418510437E0,7.337437400E0
3.290517174E0,-2.155306190E-1,-5.861026764E0,3.942892075E0,7.067141295E0
3.292980789E0,-3.311113119E-1,-5.923656464E0,3.527993202E0,6.902613754E0
3.295442016E0,-3.708789945E-1,-5.904001713E0,3.166234016E0,6.709681460E0
3.297905632E0,-4.608212113E-1,-5.953913212E0,2.922657967E0,6.648561372E0
3.300366862E0,-5.655075312E-1,-5.941072464E0,2.790674210E0,6.588171471E0
3.302830478E0,-6.478391886E-1,-5.972958565E0,2.765902519E0,6.614086965E0
3.305291632E0,-7.549020052E-1,-5.936817646E0,2.751883507E0,6.586998075E0
3.307755266E0,-8.441894054E-1,-5.970765114E0,2.830575943E0,6.661445186E0
3.310216497E0,-8.550562263E-1,-5.986574173E0,2.884496689E0,6.700038256E0
3.312680112E0,-7.996990085E-1,-6.081818104E0,2.928887367E0,6.797529784E0
3.315141343E0,-7.062551975E-1,-6.151339054E0,2.970335960E0,6.867362251E0
3.317604958E0,-5.764148235E-1,-6.347282410E0,3.035427094E0,7.059324732E0
3.320066126E0,-4.409425855E-1,-6.556751251E0,3.092368126E0,7.262792711E0
3.322529742E0,-2.450304627E-1,-6.768397331E0,3.246974945E0,7.510931277E0
3.324990972E0,-1.086794138E-1,-6.974761486E0,3.447388649E0,7.780976642E0
3.327454588E0,4.534691572E-3,-7.202079773E0,3.727326393E0,8.109434978E0
3.329915742E0,4.947465658E-2,-7.396076202E0,4.052746773E0,8.433809776E0
3.332379372E0,9.379228950E-2,-7.654809952E0,4.422557831E0,8.841036713E0
3.334840603E0,1.605153233E-1,-7.909930229E0,4.819697380E0,9.264029589E0
3.337304218E0,2.688020766E-1,-8.108870506E0,5.199528694E0,9.636448209E0
3.339765449E0,3.355717957E-1,-8.269990921E0,5.566699982E0,9.974643199E0
3.342229064E0,4.230085015E-1,-8.391059875E0,5.877379417E0,1.025340972E1
3.344690227E0,4.726345241E-1,-8.490248680E0,6.111173630E0,1.047158771E1
3.347153842E0,5.357719660E-1,-8.623207092E0,6.265460968E0,1.067252329E1
3.349615073E0,5.303397179E-1,-8.739692688E0,6.329479218E0,1.080397129E1
3.352078689E0,5.346559286E-1,-8.910423279E0,6.358064651E0,1.095931047E1
3.354539919E0,4.983502030E-1,-9.033914566E0,6.317037582E0,1.103471473E1
3.357003521E0,4.837079644E-1,-9.214826584E0,6.277276039E0,1.116025075E1
3.359464752E0,3.834144771E-1,-9.245051384E0,6.179977417E0,1.112699881E1
3.361928290E0,3.790454268E-1,-9.314365387E0,6.077988625E0,1.112847805E1
3.364389521E0,3.288682103E-1,-9.272912979E0,5.901432991E0,1.099645310E1
3.366853136E0,2.996848822E-1,-9.285798073E0,5.679873466E0,1.088929839E1
3.369314367E0,2.754623294E-1,-9.187111855E0,5.369494438E0,1.064473458E1
3.371777982E0,2.943372726E-1,-9.145193100E0,5.078748703E0,1.046493572E1
3.374239213E0,2.991390526E-1,-9.056350708E0,4.697016716E0,1.020631855E1
3.376702829E0,3.073501289E-1,-9.042943954E0,4.336071968E0,1.003348492E1
3.379163982E0,3.018617034E-1,-8.935351372E0,3.900173187E0,9.754126076E0
3.381627602E0,3.100041747E-1,-8.919162750E0,3.520200729E0,9.593715648E0
3.384088833E0,2.765544057E-1,-8.805641174E0,3.127661705E0,9.348693308E0
3.386552448E0,2.603124976E-1,-8.778068542E0,2.784435272E0,9.212780781E0
3.389013602E0,2.049524486E-1,-8.676856995E0,2.405079842E0,9.006345644E0
3.391477217E0,1.690821052E-1,-8.599302292E0,2.103702545E0,8.854499030E0
3.393938448E0,1.431922019E-1,-8.440019608E0,1.747694016E0,8.620259239E0
3.396402063E0,1.225658357E-1,-8.325151443E0,1.429090500E0,8.447808509E0
3.398863294E0,5.736821890E-2,-8.095067978E0,1.045993805E0,8.162568206E0
3.401326910E0,4.112970829E-2,-7.867322922E0,6.716032028E-1,7.896044103E0
3.403788063E0,2.939581871E-3,-7.666412354E0,2.815504074E-1,7.671581170E0
3.406251665E0,-3.163033724E-2,-7.540480614E0,-7.360839844E-2,7.540906216E0
3.408712896E0,-5.950695276E-2,-7.368539810E0,-4.603223801E-1,7.383144093E0
3.411176487E0,-1.729911566E-2,-7.304617882E0,-7.965998650E-1,7.347946176E0
3.413932138E0,7.032072544E-2,-7.445038795E0,-9.510951042E-1,7.505873005E0
3.416687555E0,8.427077532E-2,-7.342139244E0,-1.277194977E0,7.452874429E0
3.419442972E0,7.737076283E-2,-7.201138973E0,-1.591145039E0,7.375237710E0
3.422198389E0,8.727073669E-2,-7.086089134E0,-1.947094917E0,7.349248534E0
3.424953806E0,7.527077198E-2,-6.921089172E0,-2.335144997E0,7.304795902E0
3.427709223E0,1.183207631E-1,-6.753088951E0,-2.536145210E0,7.214585415E0
3.430464640E0,1.562707424E-1,-6.636088848E0,-2.797145367E0,7.203201923E0
3.430926256E0,1.747150421E-1,-6.515964031E0,-3.067059040E0,7.203829798E0
3.433336949E0,1.437535286E-1,-6.435967922E0,-3.336585045E0,7.250872219E0
3.435800564E0,1.624689698E-1,-6.420691490E0,-3.528189182E0,7.328014348E0
3.438261795E0,1.364430785E-1,-6.350000381E0,-3.739634037E0,7.370616276E0
3.440725400E0,1.293856502E-1,-6.335628033E0,-3.893317699E0,7.437395103E0
3.443186631E0,1.054546833E-1,-6.282205582E0,-4.039562225E0,7.469624531E0
3.445650246E0,1.393126845E-1,-6.262666702E0,-4.120176792E0,7.497750266E0
3.448111400E0,1.614156961E-1,-6.212186813E0,-4.218517303E0,7.510872670E0
3.450575015E0,1.606255174E-1,-6.205287457E0,-4.249393940E0,7.522548892E0
3.453036256E0,1.816743016E-1,-6.168941498E0,-4.256516457E0,7.497117920E0
3.455499872E0,1.966112256E-1,-6.176949024E0,-4.261643410E0,7.506994057E0
3.457932390E0,2.436026335E-1,-6.186347485E0,-4.201248646E0,7.482026973E0
3.460364949E0,2.335526347E-1,-6.191297531E0,-4.165248871E0,7.465655370E0
3.462885872E0,2.265464664E-1,-6.147881031E0,-4.110438824E0,7.398883145E0
3.465349487E0,1.975023746E-1,-6.147483349E0,-4.022682667E0,7.349322047E0
3.467810718E0,1.825557351E-1,-6.068042278E0,-3.972990036E0,7.255281767E0
3.470274333E0,1.665279269E-1,-6.004156113E0,-3.932227135E0,7.179138696E0
3.472735564E0,1.395879984E-1,-5.905828953E0,-3.925576210E0,7.092844917E0
3.475199179E0,1.467000246E-1,-5.866105080E0,-3.928844452E0,7.061765249E0
3.477660314E0,1.947484016E-1,-5.777721882E0,-3.983966827E0,7.020825362E0
3.480123930E0,2.147164345E-1,-5.748589516E0,-4.053809166E0,7.037453611E0
3.482585160E0,2.747502923E-1,-5.729266167E0,-4.161093235E0,7.086231399E0
3.485048776E0,3.999119997E-1,-5.734832287E0,-4.286305904E0,7.170819289E0
3.487510007E0,4.698206484E-1,-5.681525707E0,-4.415447235E0,7.210869579E0
3.489973606E0,5.552908182E-1,-5.635811806E0,-4.490281582E0,7.227264440E0
3.492434760E0,5.863386989E-1,-5.555549622E0,-4.581443310E0,7.224787019E0
3.494898375E0,6.129938364E-1,-5.457475185E0,-4.663684368E0,7.204842034E0
3.497359606E0,6.329388618E-1,-5.338249207E0,-4.720772743E0,7.154244299E0
3.499823221E0,6.637624502E-1,-5.205996990E0,-4.801529408E0,7.113203913E0
3.502284457E0,7.257015705E-1,-5.049907684E0,-4.899543762E0,7.073453150E0
3.504748073E0,8.307436705E-1,-4.955201626E0,-4.962058067E0,7.061598860E0
3.507209226E0,9.466688037E-1,-4.885088444E0,-5.084055901E0,7.113922640E0
3.509672842E0,1.122544408E0,-4.850972652E0,-5.140469074E0,7.156567887E0
3.512134073E0,1.283598185E0,-4.797971249E0,-5.190460205E0,7.183942479E0
3.514597688E0,1.389453888E0,-4.737654686E0,-5.223272324E0,7.187386715E0
3.517058919E0,1.441297770E0,-4.696660995E0,-5.254359245E0,7.193347958E0
3.519522534E0,1.442159176E0,-4.637075424E0,-5.299982071E0,7.188330928E0
3.521983688E0,1.387058735E0,-4.577041626E0,-5.309012413E0,7.145547899E0
3.524447303E0,1.327082634E0,-4.470739365E0,-5.317750931E0,7.072986197E0
3.526908520E0,1.240941525E0,-4.353715897E0,-5.358872414E0,7.015147291E0
3.529372136E0,1.200549006E0,-4.249083042E0,-5.366553783E0,6.949526899E0
3.531833366E0,1.152513027E0,-4.137020588E0,-5.392517090E0,6.893654052E0
3.534296982E0,1.101040363E0,-4.024360657E0,-5.397946358E0,6.822433104E0
3.536758136E0,1.086004138E0,-3.880358219E0,-5.351902008E0,6.699211894E0
3.539221751E0,1.065745473E0,-3.774910450E0,-5.324755669E0,6.613530468E0
3.541682982E0,1.048757076E0,-3.660022259E0,-5.305852890E0,6.530522891E0
3.544146597E0,1.084453940E0,-3.556138992E0,-5.263928890E0,6.444463689E0
3.546607828E0,1.091452956E0,-3.446061373E0,-5.205868244E0,6.337797150E0
3.549071443E0,1.130704999E0,-3.319050789E0,-5.140218735E0,6.222253657E0
3.551532592E0,1.123587012E0,-3.225037813E0,-5.057250023E0,6.102384326E0
3.553996284E0,1.155998945E0,-3.097893476E0,-4.990586281E0,5.986587424E0
3.556457438E0,1.150964737E0,-2.986957788E0,-4.997600555E0,5.934867140E0
3.558921054E0,1.180603623E0,-2.874947071E0,-5.005887985E0,5.892203331E0
3.561382284E0,1.216503382E0,-2.839035749E0,-5.031938553E0,5.904270494E0
3.563845924E0,1.203225970E0,-2.780945778E0,-5.030221462E0,5.872353882E0
3.566307155E0,1.167129636E0,-2.738000154E0,-5.073209286E0,5.881861006E0
3.568770693E0,1.150907516E0,-2.652776480E0,-5.140410423E0,5.897934425E0
3.571231924E0,1.075821280E0,-2.566959858E0,-5.152326107E0,5.856034379E0
3.573695539E0,1.047622204E0,-2.498211622E0,-5.075707436E0,5.753379838E0
3.576156765E0,9.575403929E-1,-2.417368174E0,-4.967605591E0,5.606929445E0
3.578620380E0,8.818638921E-1,-2.355238438E0,-4.805893421E0,5.424153722E0
3.581081611E0,7.737937570E-1,-2.264516354E0,-4.551826477E0,5.142559224E0
3.583545227E0,6.046800613E-1,-2.146514654E0,-4.308579922E0,4.851497097E0
3.586006380E0,4.666764140E-1,-2.069766760E0,-4.061387062E0,4.582203202E0
3.588469987E0,3.569069505E-1,-1.987625122E0,-3.847366333E0,4.345142564E0
3.590931218E0,2.300966382E-1,-1.963829756E0,-3.706210613E0,4.200662910E0
3.593394833E0,1.376571059E-1,-1.967781305E0,-3.594419003E0,4.100117158E0
3.595856064E0,4.485189915E-2,-1.955949545E0,-3.451176167E0,3.967161107E0
3.598319679E0,-9.358215332E-2,-1.929484367E0,-3.296014786E0,3.820390165E0
3.600780828E0,-2.082397342E-1,-1.869634390E0,-3.185911179E0,3.699854940E0
3.603244443E0,-3.587149382E-1,-1.772455692E0,-3.089685440E0,3.580004428E0
3.605705674E0,-4.829515815E-1,-1.621802807E0,-3.001523972E0,3.445668691E0
3.608169290E0,-5.653138757E-1,-1.470021725E0,-2.968554497E0,3.360485002E0
3.610630520E0,-6.453239322E-1,-1.367407799E0,-2.956127167E0,3.320381739E0
3.613094064E0,-7.305819392E-1,-1.241846561E0,-3.023610592E0,3.349351260E0
3.615555295E0,-7.814573646E-1,-1.108633041E0,-3.166949272E0,3.445186573E0
3.618018910E0,-8.267815709E-1,-9.704656601E-1,-3.370985031E0,3.604013241E0
3.620480141E0,-8.616078496E-1,-8.924279213E-1,-3.609077930E0,3.816312250E0
3.622943756E0,-8.455867767E-1,-8.052091599E-1,-3.932799339E0,4.102473575E0
3.625405015E0,-7.677360773E-1,-7.703170776E-1,-4.233857155E0,4.371310272E0
3.627868630E0,-6.855360270E-1,-7.339749336E-1,-4.539043903E0,4.648827638E0
3.630329784E0,-5.959428549E-1,-7.500381470E-1,-4.768313408E0,4.863591046E0
3.632793400E0,-5.440570116E-1,-7.223391533E-1,-4.967903137E0,5.049537946E0
3.635254630E0,-4.964010119E-1,-6.373767853E-1,-5.130077362E0,5.193299228E0
3.637718251E0,-4.053851962E-1,-5.377635956E-1,-5.276622772E0,5.319424285E0
3.640179481E0,-2.979989648E-1,-5.029983521E-1,-5.409641266E0,5.441142284E0
3.642643097E0,-1.560185552E-1,-4.368605614E-1,-5.554762840E0,5.574098954E0
3.645104251E0,3.323262930E-2,-3.561491966E-1,-5.771727562E0,5.782800853E0
3.647567866E0,1.905786395E-1,-3.108544350E-1,-5.979845524E0,5.990951776E0
3.650029097E0,3.775566816E-1,-2.212562561E-1,-6.208747864E0,6.224150819E0
3.652492712E0,6.025780439E-1,-1.347551346E-1,-6.418492317E0,6.448123981E0
3.654953943E0,7.745096684E-1,-6.440210342E-2,-6.599428654E0,6.645033590E0
3.657387658E0,8.887377977E-1,3.989887238E-2,-6.749883175E0,6.808257462E0
3.659821405E0,9.487378001E-1,1.637988091E-1,-6.849783421E0,6.917114020E0
3.662342328E0,9.777305126E-1,2.834329605E-1,-6.871565819E0,6.946560876E0
3.664803558E0,9.864043593E-1,4.727783203E-1,-6.876753330E0,6.963206823E0
3.667267174E0,1.075909376E0,5.873460770E-1,-6.805673599E0,6.915182538E0
3.669728405E0,1.168350577E0,6.630954742E-1,-6.700585842E0,6.833929273E0
3.672192025E0,1.249198198E0,7.280273438E-1,-6.598021507E0,6.754584204E0
3.674653179E0,1.306418061E0,8.413043022E-1,-6.442460537E0,6.627202943E0
3.677116794E0,1.314849734E0,9.703736305E-1,-6.278116703E0,6.487311010E0
3.679578025E0,1.275688887E0,1.075667858E0,-6.070923328E0,6.296074454E0
3.682041640E0,1.168031573E0,1.194623947E0,-5.857788086E0,6.091396013E0
3.684502886E0,9.720656872E-1,1.318702698E0,-5.628652573E0,5.862219570E0
3.686966502E0,7.550313473E-1,1.429691315E0,-5.475197315E0,5.708929430E0
3.689427655E0,4.917899370E-1,1.504328728E0,-5.312014580E0,5.542775583E0
3.691891271E0,2.239413261E-1,1.619685650E0,-5.221558571E0,5.471581602E0
3.694352502E0,-1.726293564E-2,1.665523052E0,-5.103014469E0,5.367962530E0
3.696816107E0,-2.886621952E-1,1.774175644E0,-4.985607147E0,5.299745626E0
3.699277338E0,-4.877696633E-1,1.864524841E0,-4.814374924E0,5.185805437E0
3.701740953E0,-6.050698161E-1,1.895346165E0,-4.658242702E0,5.065340230E0
3.704202107E0,-6.750864983E-1,1.885777473E0,-4.419464111E0,4.852170802E0
3.706665722E0,-6.491765976E-1,1.897246361E0,-4.206098557E0,4.659639372E0
3.709126949E0,-6.138004065E-1,1.873648643E0,-3.899833679E0,4.369898500E0
3.711590565E0,-5.431550741E-1,1.860229492E0,-3.660039425E0,4.141420021E0
3.714051795E0,-4.955427647E-1,1.864953995E0,-3.410773754E0,3.918800025E0
3.716515411E0,-4.383029938E-1,1.917552948E0,-3.232324123E0,3.783786207E0
3.718976642E0,-3.835663795E-1,1.945625782E0,-3.051164627E0,3.638981785E0
3.721440271E0,-3.280099630E-1,2.006077290E0,-2.936470032E0,3.571385288E0
3.723901425E0,-2.537034750E-1,2.030340672E0,-2.859051228E0,3.515796157E0
3.726365040E0,-2.076858282E-1,2.060120583E0,-2.804309368E0,3.485883138E0
3.728826271E0,-1.060266495E-1,2.029016972E0,-2.718228817E0,3.393658707E0
3.731289886E0,-2.257126570E-2,2.010735989E0,-2.655566216E0,3.331005945E0
3.733751103E0,9.445112944E-2,1.991789818E0,-2.602730751E0,3.278773407E0
3.736214642E0,1.962976456E-1,2.031734943E0,-2.546453953E0,3.263572794E0
3.738675872E0,2.743768096E-1,2.045913696E0,-2.499481201E0,3.241674222E0
3.741139488E0,3.710625172E-1,2.139893532E0,-2.497176647E0,3.309489829E0
3.743600719E0,4.661539793E-1,2.193568707E0,-2.501516342E0,3.359557592E0
3.746064334E0,5.460437536E-1,2.282951832E0,-2.651989937E0,3.541621588E0
3.748525565E0,6.092588902E-1,2.315529823E0,-2.863319874E0,3.732489177E0
3.750989180E0,6.877014041E-1,2.391820431E0,-3.170822620E0,4.030862722E0
3.753450334E0,8.070172668E-1,2.420025826E0,-3.507327080E0,4.336951131E0
3.755913949E0,8.871170878E-1,2.498787880E0,-3.835026741E0,4.662440102E0
3.758375170E0,9.308201671E-1,2.560624599E0,-4.128330231E0,4.946345622E0
3.760838785E0,9.964759946E-1,2.657646656E0,-4.382411003E0,5.221261951E0
3.763300016E0,1.070938230E0,2.719889641E0,-4.566661835E0,5.422094490E0
3.765763632E0,1.099491119E0,2.841480255E0,-4.665756702E0,5.572447969E0
3.768224785E0,1.093191385E0,2.871112823E0,-4.682765007E0,5.600593215E0
3.770688410E0,1.069244385E0,2.973824024E0,-4.665078640E0,5.634702441E0
3.773149641E0,1.013044238E0,2.990208149E0,-4.546878338E0,5.535495102E0
3.775613256E0,8.879717588E-1,3.002945900E0,-4.448887825E0,5.440476156E0
3.778074487E0,7.619853616E-1,2.924613476E0,-4.276320457E0,5.236497143E0
3.780538102E0,6.056121588E-1,2.915947437E0,-4.156872749E0,5.113619716E0
3.782999256E0,4.563393891E-1,2.769238472E0,-3.965621233E0,4.858300023E0
3.785462871E0,2.723785639E-1,2.670035839E0,-3.802472830E0,4.654254085E0
3.787924102E0,9.456712008E-2,2.502900600E0,-3.525074005E0,4.324303539E0
3.790387718E0,-9.021204710E-2,2.397768974E0,-3.267807722E0,4.054133887E0
3.792848948E0,-3.005144596E-1,2.241209984E0,-2.973138809E0,3.735356142E0
3.795312564E0,-4.356554747E-1,2.118201256E0,-2.645083427E0,3.416582882E0
3.797773718E0,-6.205235124E-1,1.891612053E0,-2.261544704E0,3.012943750E0
3.800237333E0,-8.120672703E-1,1.863383293E0,-1.934853554E0,2.806298064E0
3.802698564E0,-1.005794525E0,1.800997257E0,-1.572502136E0,2.593834366E0
3.805162179E0,-1.161919594E0,1.866082191E0,-1.270501137E0,2.538994491E0
3.807623420E0,-1.327977419E0,1.888322830E0,-8.995847702E-1,2.477607696E0
3.810087035E0,-1.484605551E0,1.934746265E0,-6.000876427E-1,2.511454147E0
3.812548189E0,-1.551010370E0,1.848013878E0,-2.251267433E-1,2.423111742E0
3.815011805E0,-1.573658824E0,1.842009544E0,6.255817413E-2,2.423492270E0
3.817473035E0,-1.536278486E0,1.720094204E0,3.996505737E-1,2.340640134E0
3.819936641E0,-1.433854222E0,1.662232399E0,6.477823257E-1,2.288793661E0
3.822397872E0,-1.241786122E0,1.589192390E0,8.639378548E-1,2.194072434E0
3.824861487E0,-1.015791416E0,1.590320587E0,9.408774376E-1,2.108601936E0
3.827322718E0,-7.670086026E-1,1.537440777E0,1.047650814E0,2.012361440E0
3.829786256E0,-5.151713490E-1,1.508476734E0,1.128357410E0,1.952970564E0
3.832247487E0,-2.179337740E-1,1.390015125E0,1.298674583E0,1.914730491E0
3.834711102E0,8.459919691E-2,1.305265903E0,1.440993786E0,1.946108731E0
3.837172333E0,3.563956618E-1,1.164519310E0,1.682632446E0,2.077107373E0
3.839635949E0,6.091924906E-1,1.073836327E0,1.896868706E0,2.263261106E0
3.842097179E0,8.421370387E-1,9.546718597E-1,2.130921364E0,2.482220581E0
3.844560795E0,1.056741238E0,9.427914619E-1,2.296436787E0,2.697995496E0
3.847021949E0,1.311154604E0,8.378486633E-1,2.513297558E0,2.955973848E0
3.849485564E0,1.497957945E0,8.196063042E-1,2.649865150E0,3.152367018E0
3.851946795E0,1.672040224E0,7.488565445E-1,2.852670193E0,3.390314420E0
3.854410410E0,1.773330331E0,7.643942833E-1,3.018079758E0,3.582988209E0
3.856842924E0,1.798315048E0,7.939400673E-1,3.246085167E0,3.794910638E0
3.859275483E0,1.861315012E0,7.288403511E-1,3.491035461E0,4.022813745E0
3.861796405E0,1.856050491E0,6.892127991E-1,3.728825569E0,4.221857155E0
3.864260020E0,1.823799849E0,7.112965584E-1,3.838381290E0,4.308753835E0
3.866721251E0,1.742785573E0,7.586011887E-1,3.918313026E0,4.354991882E0
3.869184867E0,1.671580672E0,8.339047432E-1,3.900103092E0,4.324393968E0
3.871646102E0,1.533912420E0,9.001431465E-1,3.817251682E0,4.211241551E0
3.874109718E0,1.359988093E0,1.029823780E0,3.701193810E0,4.075406759E0
3.876570872E0,1.138522625E0,1.109680176E0,3.592412949E0,3.928492669E0
3.879034487E0,8.835618496E-1,1.196722031E0,3.481328011E0,3.785824861E0
3.881495718E0,6.696177721E-1,1.276558876E0,3.360708237E0,3.656822443E0
3.883959328E0,3.826067746E-1,1.368690014E0,3.243014336E0,3.540740357E0
3.886420559E0,1.621972919E-1,1.453267097E0,3.132633209E0,3.457120773E0
3.888884174E0,-1.127690673E-1,1.583773136E0,3.039493561E0,3.429223719E0
3.891345328E0,-3.255279958E-1,1.696134567E0,2.972233772E0,3.437588478E0
3.893808944E0,-5.411295891E-1,1.836371422E0,2.956515312E0,3.522224300E0
3.896270164E0,-6.215620041E-1,1.908513546E0,2.982387543E0,3.594912897E0
3.898733780E0,-7.200332284E-1,2.011457443E0,2.992503166E0,3.676885108E0
3.901195011E0,-7.414165735E-1,2.008562088E0,3.091453552E0,3.760466096E0
3.903658626E0,-8.196760416E-1,2.056501389E0,3.126375198E0,3.830833937E0
3.906119857E0,-7.979761958E-1,2.022737503E0,3.232352257E0,3.895681471E0
3.908583473E0,-8.200085163E-1,1.991735458E0,3.351721764E0,3.984151463E0
3.911044627E0,-7.474035621E-1,1.877167225E0,3.581461906E0,4.112084418E0
3.913508242E0,-6.017428637E-1,1.706270695E0,4.006713867E0,4.396272304E0
3.915969473E0,-3.456490636E-1,1.372109413E0,4.540187836E0,4.755571795E0
3.918433089E0,-1.040097922E-1,1.112436771E0,5.187161446E0,5.306126409E0
3.920894294E0,2.657207251E-1,8.323326111E-1,5.981499672E0,6.044975054E0
3.923357910E0,5.034348369E-1,6.689958572E-1,6.692760468E0,6.744927336E0
3.925819064E0,8.350841403E-1,4.228968620E-1,7.398185730E0,7.457168321E0
3.928282679E0,1.105658412E0,2.372345924E-1,8.069357872E0,8.148208223E0
3.930743910E0,1.449411273E0,4.985332489E-3,8.758808136E0,8.877924186E0
3.933207525E0,1.797102451E0,-1.932916641E-1,9.406143188E0,9.578228885E0
3.935668756E0,2.136648178E0,-3.835134506E-1,1.008067799E1,1.031176108E1
3.938132371E0,2.403068304E0,-5.433745384E-1,1.075050735E1,1.102920675E1
3.940593525E0,2.561764002E0,-7.058124542E-1,1.137307358E1,1.167936679E1
3.943057141E0,2.641749620E0,-7.862892151E-1,1.186048889E1,1.217654666E1
3.945518376E0,2.708538532E0,-9.337935448E-1,1.224310017E1,1.257384798E1
3.947981992E0,2.707861662E0,-1.017575741E0,1.251591778E1,1.284586210E1
3.950443222E0,2.693527460E0,-1.089057922E0,1.270249844E1,1.303052585E1
3.952906838E0,2.645096302E0,-1.163385391E0,1.276121330E1,1.308428695E1
3.955367992E0,2.524877310E0,-1.212962389E0,1.277799416E1,1.308141498E1
3.957831622E0,2.384461164E0,-1.237012386E0,1.264067078E1,1.292294132E1
3.960292853E0,2.221348763E0,-1.272443056E0,1.243737411E1,1.269810130E1
3.962756468E0,2.096457958E0,-1.305840969E0,1.213373756E1,1.238256613E1
3.965217699E0,1.960336328E0,-1.362196684E0,1.186739445E1,1.210510427E1
3.967681314E0,1.829426885E0,-1.408638477E0,1.171077347E1,1.193621717E1
3.970142530E0,1.678314447E0,-1.369990826E0,1.150739670E1,1.170955990E1
3.972606146E0,1.555849314E0,-1.300122976E0,1.138491058E1,1.156404669E1
3.975067299E0,1.490695953E0,-1.244353533E0,1.127946663E1,1.144539023E1
3.977530915E0,1.555406928E0,-1.247920513E0,1.122346020E1,1.139923923E1
3.979992146E0,1.646073341E0,-1.172188520E0,1.114395809E1,1.132569580E1
3.982455771E0,1.729942083E0,-1.082269669E0,1.104978466E1,1.123662531E1
3.984917002E0,1.696681619E0,-9.645190239E-1,1.084126663E1,1.101553846E1
3.987380617E0,1.555942893E0,-8.829898834E-1,1.056301022E1,1.071344082E1
3.989841771E0,1.356643677E0,-8.122653961E-1,1.025349331E1,1.037469914E1
3.992305386E0,1.115058303E0,-7.923913002E-1,9.956591606E0,1.005012216E1
3.994766612E0,8.279147744E-1,-7.535071373E-1,9.609053612E0,9.674043994E0
3.997230228E0,5.521802306E-1,-7.024345398E-1,9.237974167E0,9.281082049E0
3.999691458E0,3.270650506E-1,-6.443576813E-1,8.794342041E0,8.823979845E0
4.002155074E0,1.219605953E-1,-5.898852348E-1,8.303513527E0,8.325333379E0
4.004616228E0,-8.699820936E-2,-4.755349159E-1,7.831716537E0,7.846622590E0
4.007079843E0,-3.048291802E-1,-3.862447739E-1,7.403083801E0,7.419417472E0
4.009541074E0,-4.126918018E-1,-3.107247353E-1,6.945273399E0,6.964458843E0
4.012004689E0,-5.261884928E-1,-3.270487785E-1,6.554923058E0,6.584136354E0
4.014465920E0,-5.978935957E-1,-3.234229088E-1,6.139841080E0,6.177356037E0
4.016929535E0,-6.828180552E-1,-3.850493431E-1,5.744061470E0,5.797305035E0
4.019390780E0,-7.881613374E-1,-4.211044312E-1,5.344636917E0,5.418825612E0
4.021854319E0,-8.824382424E-1,-5.080766678E-1,5.001534462E0,5.104134219E0
4.024315549E0,-8.905831575E-1,-6.034851074E-1,4.692831993E0,4.814561740E0
4.026779165E0,-8.399441242E-1,-7.405343056E-1,4.504420280E0,4.641519067E0
4.029240395E0,-7.461047769E-1,-8.814563751E-1,4.415403366E0,4.563926442E0
4.031704006E0,-6.665410399E-1,-1.064277172E0,4.425819397E0,4.600526078E0
4.034165237E0,-6.109457612E-1,-1.218746662E0,4.488473892E0,4.690948308E0
4.036628852E0,-5.847393870E-1,-1.329788208E0,4.647851944E0,4.869577448E0
4.039090006E0,-5.242320299E-1,-1.489264965E0,4.918586731E0,5.165774365E0
4.041553621E0,-5.427212715E-1,-1.568639755E0,5.319746017E0,5.572690082E0
4.044014828E0,-5.273542404E-1,-1.603741646E0,5.755859375E0,5.998333677E0
4.046478443E0,-5.035549402E-1,-1.620350361E0,6.233438492E0,6.460252186E0
4.048939674E0,-4.583331048E-1,-1.678031445E0,6.677849770E0,6.900691002E0
4.051403290E0,-2.857137918E-1,-1.792799473E0,7.094672203E0,7.323259929E0
4.053864443E0,-4.677695036E-2,-2.022618532E0,7.498288155E0,7.766434128E0
4.056328064E0,3.232759535E-1,-2.237956524E0,7.863719940E0,8.182362009E0
4.058760582E0,6.933641434E-1,-2.459108829E0,8.159623146E0,8.550287712E0
4.061193141E0,1.019464254E0,-2.660108805E0,8.377572060E0,8.848683508E0
4.063714141E0,1.130948067E0,-2.718217134E0,8.460305214E0,8.957930131E0
4.066177756E0,1.155744791E0,-2.756867886E0,8.425727844E0,8.940299562E0
4.068638910E0,1.110313654E0,-2.730886698E0,8.297348022E0,8.805482541E0
4.071102506E0,1.006997824E0,-2.750854731E0,8.128360748E0,8.640109653E0
4.073563737E0,9.875056148E-1,-2.784626961E0,7.884911537E0,8.420281741E0
